sep=;
ACCELEROMETER X (m/s²);ACCELEROMETER Y (m/s²);ACCELEROMETER Z (m/s²);GRAVITY X (m/s²);GRAVITY Y (m/s²);GRAVITY Z (m/s²);LINEAR ACCELERATION X (m/s²);LINEAR ACCELERATION Y (m/s²);LINEAR ACCELERATION Z (m/s²);GYROSCOPE X (rad/s);GYROSCOPE Y (rad/s);GYROSCOPE Z (rad/s);MAGNETIC FIELD X (μT);MAGNETIC FIELD Y (μT);MAGNETIC FIELD Z (μT);ORIENTATION Z (azimuth °);ORIENTATION X (pitch °);ORIENTATION Y (roll °);ATMOSPHERIC PRESSURE (hPa);SOUND LEVEL (dB);LOCATION Latitude : ;LOCATION Longitude : ;LOCATION Altitude ( m);LOCATION Altitude-google ( m);LOCATION Altitude-atmospheric pressure ( m);LOCATION Speed ( m/s);LOCATION Accuracy ( m);LOCATION ORIENTATION (°);Satellites in range;Time since start in ms ;YYYY-MO-DD HH-MI-SS_SSS
-1.0738;4.0164;8.2209;-0.5939;4.1452;8.8677;-0.0738;0.3386;-0.1059;-0.3797;0.1567;0.0216;14.94;-28.41;-29.7;226.5;-25.0;3.83;1003.17;53.867;51.891907;0.257267;145.0;NaN;83.25804;1.25;11.0;22.0;0 / 19;5;2015-03-03 13:57:05:560
0.0735;4.1973;8.9397;-0.1699;4.3786;8.7732;-0.1399;0.2969;0.0341;-0.0015;0.1044;0.1487;14.06;-27.53;-29.87;229.0;-26.48;1.37;1003.17;63.531;51.891907;0.257267;145.0;NaN;83.25804;1.25;11.0;22.0;0 / 19;505;2015-03-03 13:57:06:060
0.9328;4.7567;8.4351;0.5654;4.7319;8.5709;0.3818;-0.0371;-0.0278;0.0017;0.1183;-0.003;10.9;-30.69;-28.16;220.01;-28.63;-1.42;1003.15;65.801;51.891907;0.257267;145.0;NaN;83.427345;1.25;11.0;22.0;0 / 19;1005;2015-03-03 13:57:06:560
0.302;4.9138;8.7017;0.4349;4.6638;8.6157;0.1051;0.0193;-0.1132;-0.0849;0.1204;0.0269;11.42;-31.91;-29.36;221.12;-28.59;-3.42;1003.15;68.076;51.891907;0.257267;145.0;NaN;83.427345;1.25;11.0;22.0;0 / 19;1505;2015-03-03 13:57:07:060
0.3163;4.4948;8.4208;0.3027;4.5847;8.6637;0.0735;0.2268;0.1238;-0.0069;0.177;-0.0168;11.6;-28.23;-28.85;228.77;-27.87;-2.0;1003.15;67.871;51.891907;0.257267;145.0;NaN;83.427345;1.25;11.0;22.0;0 / 19;2005;2015-03-03 13:57:07:560
0.1878;4.5424;8.6874;0.2189;4.5526;8.6831;0.008;0.0539;-0.0374;-0.0037;0.0168;0.0056;11.25;-27.18;-28.5;227.93;-27.66;-1.44;1003.15;57.035;51.891907;0.257267;145.0;NaN;83.427345;1.25;11.0;22.0;0 / 19;2505;2015-03-03 13:57:08:060
0.2544;4.5186;8.5946;0.2;4.5186;8.7013;0.0583;0.1291;-0.0898;0.007;-0.0462;0.0163;13.53;-28.76;-30.38;229.89;-27.17;-0.93;1003.16;58.161;51.891907;0.257267;145.0;NaN;83.3427;1.25;11.0;22.0;0 / 19;3005;2015-03-03 13:57:08:560
0.2568;4.5805;8.835;0.1114;4.5331;8.6953;-0.066;0.1297;0.0414;-0.025;-0.0345;-0.0051;13.71;-27.53;-27.82;230.32;-27.52;-0.97;1003.16;65.467;51.891907;0.257267;145.0;NaN;83.3427;1.25;11.0;22.0;0 / 19;3505;2015-03-03 13:57:09:060
0.3139;3.914;8.5422;0.4522;4.1383;8.8792;-0.2805;0.0453;-0.067;-0.4309;0.2913;0.1508;10.9;-28.23;-31.23;225.01;-24.96;-2.92;1003.17;64.711;51.891907;0.257267;145.0;NaN;83.25804;1.25;11.0;22.0;0 / 19;4005;2015-03-03 13:57:09:560
-0.4668;2.8286;9.611;0.4088;3.8565;9.0073;0.1419;-0.2824;-0.1252;-0.0998;0.3244;0.1882;9.84;-27.18;-32.26;222.62;-23.16;-2.6;1003.17;59.412;51.891907;0.257267;145.0;NaN;83.25804;1.25;11.0;22.0;0 / 19;4505;2015-03-03 13:57:10:060
-0.2836;2.5001;9.5253;-0.1524;2.4882;9.4845;-0.819;-0.4802;0.1109;0.3947;-0.1423;-0.192;13.71;-19.83;-34.98;232.23;-14.7;0.92;1003.18;61.054;51.891907;0.257267;145.0;NaN;83.17237;1.25;11.0;22.0;0 / 19;5005;2015-03-03 13:57:10:560
1.0399;3.2594;9.68;0.9126;2.9768;9.2993;0.0022;-0.7201;-0.0079;0.2206;-0.6572;-0.3704;8.79;-22.98;-35.32;220.34;-16.4;-2.38;1003.17;56.988;51.891907;0.257267;145.0;NaN;83.25804;1.25;11.0;22.0;0 / 19;5504;2015-03-03 13:57:11:059
2.6276;1.755;9.7229;2.7697;1.8042;9.2328;0.2545;1.371;-0.2461;-0.4245;-2.8254;-1.2484;3.87;-15.62;-40.44;239.88;-10.6;-16.7;1003.17;56.287;51.891907;0.257267;145.0;NaN;83.25804;1.25;11.0;22.0;0 / 19;6004;2015-03-03 13:57:11:559
7.4907;-2.2226;3.0435;8.0357;-1.327;5.4623;2.8376;0.2423;-0.7577;-1.8494;1.4524;-1.571;-30.94;-0.55;-32.94;234.75;7.78;-55.79;1003.17;57.053;51.891907;0.257267;145.0;NaN;83.25804;1.25;11.0;22.0;0 / 19;6505;2015-03-03 13:57:12:060
7.148;-0.7277;5.293;7.3895;-0.5182;6.4263;-0.2764;0.6815;0.1965;0.6671;-0.372;0.2876;-22.68;-1.78;-37.2;251.88;3.03;-48.99;1003.16;54.936;51.891907;0.257267;145.0;NaN;83.3427;1.25;11.0;22.0;0 / 19;7005;2015-03-03 13:57:12:560
7.9668;-0.6896;7.4496;7.3918;-1.1218;6.3461;0.5096;0.2415;0.491;-0.2098;0.1439;-0.0564;-24.26;0.85;-36.69;252.82;6.57;-49.35;1003.17;61.136;51.891907;0.257267;145.0;NaN;83.25804;1.25;11.0;22.0;0 / 19;7505;2015-03-03 13:57:13:060
7.6574;-1.299;6.0476;7.2827;-1.2761;6.4424;0.1473;-0.3104;-0.3089;-0.0282;0.0136;-0.114;-24.26;2.25;-39.07;255.8;7.16;-48.99;1003.18;63.521;51.891907;0.257267;145.0;NaN;83.17237;1.25;11.0;22.0;0 / 19;8005;2015-03-03 13:57:13:560
7.7359;-1.3323;6.1357;7.3253;-1.4302;6.3612;0.1298;-0.1179;-0.4131;-0.1596;0.0884;-0.0211;-23.73;2.42;-38.22;252.83;7.89;-48.73;1003.17;59.617;51.891907;0.257267;145.0;NaN;83.25804;1.25;11.0;22.0;0 / 19;8505;2015-03-03 13:57:14:060
6.0482;-2.0631;6.0071;7.2589;-1.7126;6.3676;-0.0064;0.05;0.2844;0.0892;0.0606;0.0836;-23.73;3.83;-38.91;255.75;9.76;-48.95;1003.17;57.292;51.891907;0.257267;145.0;NaN;83.25804;1.25;11.0;22.0;0 / 19;9006;2015-03-03 13:57:14:561
7.0599;-1.7465;6.576;7.4294;-1.8896;6.1159;-0.9836;0.2398;-1.3226;0.116;-0.6027;0.3442;-23.73;1.72;-37.88;241.93;11.05;-47.62;1003.18;70.119;51.891907;0.257267;145.0;NaN;83.17237;1.25;11.0;22.0;0 / 19;9508;2015-03-03 13:57:15:063
6.6386;-5.2147;8.0518;7.0872;-4.4383;5.1229;1.013;-0.0692;-2.007;-1.2438;-0.1819;0.5161;-27.07;12.76;-34.64;238.83;26.91;-54.14;1003.19;58.308;51.891907;0.257267;145.0;NaN;83.087715;1.25;11.0;22.0;0 / 19;10005;2015-03-03 13:57:15:560
6.4696;-6.1669;10.268;8.0332;-2.9071;4.8153;-0.2556;2.4063;-2.758;0.0369;-0.6849;-0.1461;-28.13;10.31;-34.3;246.19;21.9;-58.29;1003.22;53.587;51.891907;0.257267;145.0;NaN;82.83273;1.25;11.0;22.0;0 / 19;10504;2015-03-03 13:57:16:059
5.6293;-0.9277;-11.7981;7.1781;0.2237;-6.678;2.8476;-0.8932;2.0715;1.9766;-2.7464;0.0739;-39.03;-14.92;26.74;206.02;-1.31;-132.93;1003.23;55.4;51.891907;0.257267;145.0;NaN;82.74706;1.25;11.0;22.0;0 / 19;11006;2015-03-03 13:57:16:561
5.1556;-3.6318;-10.0247;2.9896;-4.6222;-8.1159;1.1713;0.2124;0.2352;1.073;-0.0056;0.1241;-22.15;13.11;39.7;225.89;25.15;-160.76;1003.23;58.847;51.891907;0.257267;145.0;NaN;82.74706;1.25;11.0;22.0;0 / 19;11505;2015-03-03 13:57:17:060
8.9523;-1.9012;2.9031;9.2601;-0.8792;3.106;-0.2945;-0.5349;-0.2594;0.2324;1.1725;-0.9493;-36.21;1.55;-20.32;256.52;10.41;-88.79;1003.24;60.264;51.891907;0.257267;145.0;NaN;82.6624;1.25;11.0;22.0;0 / 19;12009;2015-03-03 13:57:17:564
7.386;-1.0681;7.4115;6.3213;1.0028;7.43;0.3219;-2.5419;-0.539;1.5611;1.0572;1.1837;-22.33;-3.88;-31.4;246.19;7.4;-64.76;1003.24;63.519;51.891907;0.257267;145.0;NaN;82.6624;1.25;11.0;22.0;0 / 19;12504;2015-03-03 13:57:18:059
5.4722;-2.7296;10.3965;3.7552;0.4942;9.0457;1.206;-1.671;0.7093;-0.1746;0.4718;-0.0243;-15.47;-6.86;-32.6;166.91;-2.89;-22.55;1003.24;66.173;51.891907;0.257267;145.0;NaN;82.6624;1.25;11.0;22.0;0 / 19;13005;2015-03-03 13:57:18:560
7.0956;-1.6894;10.4441;4.8905;-0.5878;8.4798;0.0045;-2.3026;-0.3454;-1.2139;0.8649;0.9007;-25.14;-5.28;-31.4;112.29;-3.98;-30.96;1003.25;63.399;51.891907;0.257267;145.0;NaN;82.577736;1.25;11.0;22.0;0 / 19;13506;2015-03-03 13:57:19:061
1.0423;-2.5582;11.0749;4.3696;-0.2442;8.7759;-1.9737;-2.3625;0.8957;-0.4459;-0.5845;-0.9963;-21.98;-4.93;-33.45;140.18;1.43;-26.47;1003.25;64.108;51.891907;0.257267;145.0;NaN;82.577736;1.25;11.0;22.0;0 / 19;14006;2015-03-03 13:57:19:561
2.6276;-0.4397;9.6634;5.1195;0.2472;8.3606;-0.746;-0.7;0.4663;0.0593;-0.2289;-0.0692;-21.8;-6.51;-32.26;171.77;-2.21;-33.33;1003.24;67.169;51.891907;0.257267;145.0;NaN;82.6624;1.25;11.0;22.0;0 / 19;14505;2015-03-03 13:57:20:060
2.9942;0.2863;12.4175;3.8689;-0.3969;9.0025;-1.3712;-0.8804;0.5522;1.0655;1.2825;-0.1237;-25.49;-3.88;-31.06;152.99;2.54;-34.66;1003.25;64.789;51.891907;0.257267;145.0;NaN;82.577736;1.25;11.0;22.0;0 / 19;15004;2015-03-03 13:57:20:559
1.0733;1.0076;10.5155;2.578;-0.4879;9.4491;-0.4259;3.5054;1.551;-0.197;0.2753;1.2788;-22.85;-3.01;-34.64;110.99;2.85;-15.26;1003.23;66.812;51.891907;0.257267;145.0;NaN;82.74706;1.25;11.0;22.0;0 / 19;15505;2015-03-03 13:57:21:060
1.7136;-0.9681;10.4536;1.7956;-1.3392;9.5474;1.2617;-2.3988;-0.2397;-1.0397;1.0059;1.7787;-21.8;-1.96;-37.71;103.91;1.7;-12.73;1003.22;71.889;51.891907;0.257267;145.0;NaN;82.83273;1.25;11.0;22.0;0 / 19;16005;2015-03-03 13:57:21:560
1.8588;-2.3702;9.342;2.0294;-1.5404;9.4699;-0.0045;0.5925;-0.3036;-0.0389;-0.2054;-0.176;-20.57;2.77;-38.56;106.74;9.04;-12.1;1003.21;67.278;51.891907;0.257267;145.0;NaN;82.91739;1.25;11.0;22.0;0 / 19;16505;2015-03-03 13:57:22:060
1.9826;-1.4014;10.0609;1.8552;-2.1809;9.3793;0.1506;-0.0705;-0.2499;0.7953;-0.0782;0.0376;-21.45;10.66;-42.14;83.77;12.01;-11.68;1003.22;69.044;51.891907;0.257267;145.0;NaN;82.83273;1.25;11.0;22.0;0 / 19;17005;2015-03-03 13:57:22:560
1.4327;-5.8622;11.0011;1.4527;-1.525;9.5778;-0.2423;0.5105;-0.689;0.1448;-0.0761;-0.0788;-19.51;13.64;-45.72;71.1;12.19;-12.44;1003.22;69.995;51.891907;0.257267;145.0;NaN;82.83273;1.25;11.0;22.0;0 / 19;17505;2015-03-03 13:57:23:060
1.4303;-3.0295;9.1944;1.5201;-1.4711;9.5758;-0.1137;0.4512;-0.3269;0.211;0.0809;-0.9824;-20.04;12.41;-43.85;74.03;9.86;-8.17;1003.22;71.197;51.891907;0.257267;145.0;NaN;82.83273;1.25;11.0;22.0;0 / 19;18009;2015-03-03 13:57:23:564
1.5089;-1.0943;9.2777;1.4983;-0.9626;9.6436;0.2504;-0.1116;-0.0974;0.0369;-0.0035;0.0034;-21.62;10.48;-45.04;68.26;4.71;-8.43;1003.23;69.649;51.891907;0.257267;145.0;NaN;82.74706;1.25;11.0;22.0;0 / 19;18507;2015-03-03 13:57:24:062
1.1494;-1.7632;9.1087;1.6063;-1.1775;9.6023;0.0991;-0.0152;0.0147;0.1779;-0.0996;0.0099;-19.87;12.59;-45.04;59.73;6.9;-9.5;1003.23;71.771;51.891907;0.257267;145.0;NaN;82.74706;1.25;11.0;22.0;0 / 19;19005;2015-03-03 13:57:24:560
1.4375;-1.5537;9.0445;1.4357;-1.8428;9.5243;0.0671;0.1404;-0.2159;-0.291;-0.0526;-0.0094;-17.76;13.29;-46.75;64.38;9.1;-8.86;1003.22;71.983;51.891907;0.257267;145.0;NaN;82.83273;1.25;11.0;22.0;0 / 19;19506;2015-03-03 13:57:25:061
1.566;-1.3871;9.1397;1.4489;-2.1077;9.4672;0.2002;0.3337;0.0094;0.0764;0.0553;0.0387;-19.87;15.74;-46.75;66.75;12.05;-9.08;1003.23;67.702;51.891907;0.257267;145.0;NaN;82.74706;1.25;11.0;22.0;0 / 19;20005;2015-03-03 13:57:25:560
1.3637;0.6957;8.2732;1.5597;-0.7264;9.6545;0.9885;-0.4596;-0.5133;0.179;-0.1819;-0.5402;-18.28;1.2;-38.05;107.96;6.74;-9.37;1003.23;67.486;51.891907;0.257267;145.0;NaN;82.74706;1.25;11.0;22.0;0 / 19;20507;2015-03-03 13:57:26:062
2.3872;1.1956;9.4706;1.686;0.4891;9.6482;0.6667;0.6305;-0.3156;0.0177;-0.1114;-0.6299;-19.51;-8.44;-34.47;122.19;0.15;-11.44;1003.24;67.636;51.891907;0.257267;145.0;NaN;82.6624;1.25;11.0;22.0;0 / 19;21005;2015-03-03 13:57:26:560
1.7374;0.9362;10.0752;1.7489;0.3854;9.6417;-0.2759;0.1307;-0.9842;-0.2323;-0.2395;-0.6759;-12.66;-10.71;-36.69;161.39;-2.71;-14.86;1003.24;66.337;51.891907;0.257267;145.0;NaN;82.6624;1.25;11.0;22.0;0 / 19;21505;2015-03-03 13:57:27:060
6.6576;3.9449;11.7986;1.7933;1.1853;9.5681;2.4063;1.5319;-0.0837;-0.3989;0.3533;-2.5205;-13.89;-17.2;-32.77;144.84;-5.33;-7.35;1003.24;63.072;51.891907;0.257267;145.0;NaN;82.6624;1.25;11.0;22.0;1 / 19;22012;2015-03-03 13:57:27:567
2.2087;1.1266;5.9976;2.2444;1.4166;9.4407;-0.3669;1.6514;-0.1286;-0.448;-0.4008;-0.0158;-5.63;-21.93;-32.94;178.29;-7.85;-9.43;1003.24;62.885;51.891907;0.257267;145.0;NaN;82.6624;1.25;11.0;22.0;1 / 19;22506;2015-03-03 13:57:28:061
2.6943;2.1049;10.4251;2.1822;1.5247;9.4384;-1.8737;-0.201;-0.2312;-0.2173;0.4184;-0.035;-1.41;-19.47;-35.32;201.8;-4.04;-12.52;1003.24;62.016;51.891907;0.257267;145.0;NaN;82.6624;1.25;11.0;22.0;5 / 19;23005;2015-03-03 13:57:28:560
3.5774;4.0235;8.0114;2.6901;2.9157;8.9684;-0.471;0.6445;-0.4863;0.4973;-0.8601;0.2;-2.29;-26.66;-32.08;192.2;-11.46;-11.38;1003.24;60.007;51.891907;0.257267;145.0;NaN;82.6624;1.25;11.0;22.0;5 / 19;23506;2015-03-03 13:57:29:061
3.2584;4.321;8.7326;2.9212;3.135;8.8209;-0.1045;2.6139;0.2376;-0.3124;0.3437;-1.0219;-5.1;-28.41;-30.72;204.62;-20.71;-22.12;1003.25;62.372;51.891907;0.257267;145.0;NaN;82.577736;1.25;11.0;22.0;6 / 19;24005;2015-03-03 13:57:29:560
-2.0546;1.6098;8.3994;1.4125;3.0041;9.2277;0.0831;1.3402;-0.617;0.3338;0.1728;-0.2657;5.09;-25.96;-32.08;212.61;-17.84;-8.7;1003.25;66.059;51.891907;0.257267;145.0;NaN;82.577736;1.25;11.0;22.0;6 / 19;24507;2015-03-03 13:57:30:062
0.7019;3.9711;8.9112;0.9343;3.3607;9.1653;-0.5597;1.1178;0.343;0.0177;0.0756;0.0195;7.91;-26.31;-31.4;220.06;-20.01;-7.55;1003.25;71.595;51.89199;0.256755;209.0;NaN;82.577736;1.25;28.0;122.2;11 / 19;25004;2015-03-03 13:57:30:559
3.8416;3.576;7.3592;0.8578;3.01;9.2938;-3.3325;0.6144;-0.0056;-0.1425;0.0104;1.5693;9.84;-25.08;-31.91;225.48;-21.09;-4.19;1003.25;71.108;51.89199;0.256755;209.0;NaN;82.577736;1.25;28.0;122.2;11 / 19;25505;2015-03-03 13:57:31:060
0.571;3.4903;8.9516;0.7359;2.9647;9.3188;-0.0827;0.7673;-0.5209;0.0871;0.0841;0.0227;7.38;-24.73;-32.6;214.27;-17.6;-4.52;1003.25;69.181;51.89199;0.256755;209.0;NaN;82.577736;1.25;28.0;122.2;11 / 19;26005;2015-03-03 13:57:31:560
1.3446;3.3165;9.3849;2.2265;2.5593;9.2013;3.1973;1.3722;-2.7784;-0.2002;0.9621;-0.0403;-1.94;-24.91;-33.11;191.31;-18.66;-8.03;1003.24;73.468;51.89199;0.256755;209.0;NaN;82.6624;1.25;28.0;122.2;11 / 19;26505;2015-03-03 13:57:32:060
0.4829;3.4903;9.0945;1.1209;2.5447;9.4042;-0.4481;0.8596;-0.11;-0.0475;-0.0045;-0.0051;5.97;-22.63;-33.96;217.77;-14.62;-8.28;1003.22;70.293;51.89199;0.256755;209.0;NaN;82.83273;1.25;28.0;122.2;11 / 19;27007;2015-03-03 13:57:32:562
0.909;2.3287;10.0704;1.1853;2.5193;9.4031;-0.2226;0.4567;-0.1398;-0.1148;-0.0729;0.0643;4.74;-22.45;-34.13;215.82;-15.93;-6.27;1003.23;69.05;51.89199;0.256755;209.0;NaN;82.74706;1.25;28.0;122.2;11 / 19;27506;2015-03-03 13:57:33:061
0.2568;4.0164;9.7776;0.9915;3.0351;9.2723;-0.0324;-0.0044;0.2347;0.0839;0.1097;0.5631;4.74;-22.45;-36.18;221.26;-17.87;-6.24;1003.23;69.95;51.89199;0.256755;209.0;NaN;82.74706;1.25;28.0;122.2;11 / 19;28005;2015-03-03 13:57:33:560
1.0233;3.4665;8.6803;0.5393;2.8241;9.3757;0.068;0.3763;0.1664;-0.056;-0.0847;-0.2358;6.33;-21.23;-34.98;221.03;-17.08;-4.39;1003.22;67.336;51.89199;0.256755;209.0;NaN;82.83273;1.25;28.0;122.2;11 / 19;28506;2015-03-03 13:57:34:061
0.5377;2.6381;8.935;0.4344;2.465;9.4819;0.0403;-0.0115;-0.0486;-0.0336;0.036;-0.3383;7.73;-18.77;-37.37;228.33;-15.09;-3.0;1003.22;73.654;51.89199;0.256755;209.0;NaN;82.83273;1.25;28.0;122.2;11 / 19;29005;2015-03-03 13:57:34:560
0.2949;2.5786;8.9588;-0.1338;2.6125;9.4513;0.0704;0.0637;0.4199;-0.0026;-0.0451;0.028;11.25;-18.42;-36.35;233.67;-15.29;0.54;1003.22;72.63;51.89199;0.256755;209.0;NaN;82.83273;1.25;28.0;122.2;11 / 19;29515;2015-03-03 13:57:35:070
-0.574;2.5953;9.4277;-0.2156;2.5917;9.4555;0.042;0.1149;-0.1114;-0.0347;0.27;0.0494;10.72;-20.0;-35.49;225.64;-15.32;1.31;1003.22;69.34;51.89199;0.256755;209.0;NaN;82.83273;1.25;28.0;122.2;11 / 19;30005;2015-03-03 13:57:35:560
-1.0262;3.0333;9.242;-0.4397;2.7266;9.4097;0.0071;0.1011;0.0156;-0.0539;-0.0409;-0.0542;12.48;-18.6;-35.49;231.64;-15.57;1.38;1003.22;70.601;51.89199;0.256755;209.0;NaN;82.83273;1.25;28.0;122.2;11 / 19;30507;2015-03-03 13:57:36:062
-0.5692;2.8666;9.3515;-0.3558;2.6568;9.4332;-0.172;0.1255;0.1234;-0.0293;0.0072;-0.0019;11.78;-22.1;-35.15;222.67;-15.72;2.16;1003.21;70.852;51.89199;0.256755;209.0;NaN;82.91739;1.25;28.0;122.2;11 / 19;31006;2015-03-03 13:57:36:561
-0.7049;2.9833;8.9992;-0.3648;2.6641;9.4308;-0.0429;0.1222;0.039;0.0059;0.0147;0.0355;13.01;-19.47;-34.98;233.54;-15.73;2.05;1003.21;73.911;51.89199;0.256755;209.0;NaN;82.91739;1.25;28.0;122.2;11 / 19;31505;2015-03-03 13:57:37:060
-0.0289;2.1906;8.635;-0.453;2.6851;9.421;-0.1191;0.1289;-0.0043;-0.0058;0.0222;0.0237;13.88;-19.3;-35.15;235.48;-15.97;2.74;1003.21;73.302;51.89199;0.256755;209.0;NaN;82.91739;1.25;28.0;122.2;11 / 19;32005;2015-03-03 13:57:37:560
-0.5121;2.6691;8.9921;-0.5505;2.7023;9.4109;0.009;-0.0166;-0.2622;-0.0197;0.0424;2.0E-4;13.01;-19.47;-34.64;232.12;-15.69;3.04;1003.21;74.227;51.89199;0.256755;209.0;NaN;82.91739;1.25;28.0;122.2;11 / 19;32506;2015-03-03 13:57:38:061
-0.5835;2.8595;8.9421;-0.5125;2.611;9.4388;-0.0467;0.0704;-0.1883;-0.0154;0.036;0.0141;13.88;-19.3;-35.15;234.0;-15.74;3.55;1003.23;71.89;51.89199;0.256755;209.0;NaN;82.74706;1.25;28.0;122.2;11 / 19;33005;2015-03-03 13:57:38:560
-0.4621;2.4525;8.6993;-0.5458;2.6932;9.4138;-0.074;0.1453;0.0651;-0.0133;-0.012;0.0216;13.53;-19.3;-34.47;233.12;-15.52;3.33;1003.23;65.237;51.89199;0.256755;209.0;NaN;82.74706;1.25;28.0;122.2;11 / 19;33505;2015-03-03 13:57:39:060
-0.5668;2.8881;9.4777;-0.6241;2.7305;9.3981;-0.043;0.1506;-0.0581;-0.0304;0.0873;-0.0446;13.53;-19.3;-34.13;234.37;-16.06;3.23;1003.22;76.372;51.89199;0.256755;209.0;NaN;82.83273;1.25;28.0;122.2;11 / 19;34006;2015-03-03 13:57:39:561
-0.4145;2.4096;10.0561;-0.3955;2.5101;9.4717;-0.1325;0.2303;-0.0335;-0.1308;-0.0633;-0.098;11.78;-18.6;-35.15;229.05;-16.06;3.8;1003.2;73.471;51.89199;0.256755;209.0;NaN;83.00306;1.25;28.0;122.2;11 / 19;34505;2015-03-03 13:57:40:060
-2.971;3.4046;8.6922;-2.7613;3.4086;8.7708;-0.2811;0.085;0.7106;-0.0379;-0.0665;0.0141;22.67;-23.5;-29.7;234.35;-16.21;6.35;1003.2;74.233;51.89199;0.256755;209.0;NaN;83.00306;1.25;28.0;122.2;11 / 19;35005;2015-03-03 13:57:40:560
-1.607;2.7714;9.4896;-1.3173;3.0019;9.2425;0.1221;-0.0959;0.1476;0.101;-0.5044;0.0782;18.81;-21.05;-33.11;235.55;-17.64;9.27;1003.19;72.847;51.89199;0.256755;209.0;NaN;83.087715;1.25;28.0;122.2;11 / 19;35505;2015-03-03 13:57:41:060
-1.1857;2.9833;8.9754;-1.2442;3.0034;9.2521;-0.2272;0.1706;-0.1027;-0.0144;0.0115;0.0184;16.7;-22.45;-33.11;230.93;-17.67;7.1;1003.17;73.14;51.89199;0.256755;209.0;NaN;83.25804;1.25;28.0;122.2;11 / 19;36006;2015-03-03 13:57:41:561
-1.5856;3.1856;9.0564;-1.3197;3.0258;9.2344;-0.1929;0.1156;-0.0686;0.0145;0.0211;0.0504;17.22;-20.18;-31.91;235.33;-17.97;8.13;1003.17;71.229;51.89199;0.256755;209.0;NaN;83.25804;1.25;28.0;122.2;11 / 19;36507;2015-03-03 13:57:42:062
-1.3952;3.0642;9.2635;-1.4145;3.0264;9.2201;-0.0304;0.102;-0.1323;-0.0763;0.0083;0.0056;16.87;-22.28;-31.91;229.05;-17.98;8.72;1003.18;72.811;51.89199;0.256755;209.0;NaN;83.17237;1.25;28.0;122.2;11 / 19;37005;2015-03-03 13:57:42:560
-1.6404;3.1428;9.1849;-1.4998;3.1224;9.1745;-0.0169;0.0952;-0.0759;0.0166;-0.0526;0.0131;17.93;-21.58;-31.57;231.44;-18.27;9.2;1003.17;71.189;51.89199;0.256755;209.0;NaN;83.25804;1.25;28.0;122.2;11 / 19;37506;2015-03-03 13:57:43:061
-1.519;3.2118;9.1016;-1.507;3.088;9.185;0.0047;0.0932;-0.0192;-0.0165;0.0254;0.0141;15.99;-22.45;-32.08;226.34;-18.35;9.32;1003.18;72.841;51.89199;0.256755;209.0;NaN;83.17237;1.25;28.0;122.2;11 / 19;38005;2015-03-03 13:57:43:560
-1.5737;3.0856;9.0445;-1.4875;3.0826;9.19;-0.0032;0.115;0.0263;-0.0282;-0.0152;0.0088;17.05;-21.4;-32.08;231.81;-18.34;9.29;1003.16;72.058;51.89199;0.256755;209.0;NaN;83.3427;1.25;28.0;122.2;11 / 19;38506;2015-03-03 13:57:44:061
-1.4261;3.1118;9.1778;-1.4903;3.0629;9.1961;0.0203;0.0886;-0.0124;-0.0186;0.0136;0.0056;17.4;-21.75;-32.77;229.49;-18.24;9.17;1003.15;73.777;51.89199;0.256755;209.0;NaN;83.427345;1.25;28.0;122.2;11 / 19;39005;2015-03-03 13:57:44:560
-1.5428;3.1404;9.1016;-1.4769;3.0689;9.1962;0.0134;0.0489;-0.0383;-0.0165;-0.0067;0.0088;17.58;-20.88;-31.23;233.58;-18.27;9.22;1003.16;53.765;51.89199;0.256755;209.0;NaN;83.3427;1.25;28.0;122.2;11 / 19;39505;2015-03-03 13:57:45:060
-1.569;2.9595;9.0921;-1.4724;3.0559;9.2013;-0.0267;0.0909;-9.0E-4;-0.0208;0.0168;0.0056;16.17;-21.58;-33.62;227.3;-18.2;9.09;1003.15;59.258;51.89199;0.256755;209.0;NaN;83.427345;1.25;28.0;122.2;11 / 19;40005;2015-03-03 13:57:45:560
-1.5332;2.9999;9.1563;-1.4839;3.0458;9.2028;0.0187;0.0466;-0.0343;-0.0176;0.004;0.0109;16.7;-21.4;-31.06;231.03;-18.13;9.14;1003.16;62.675;51.89199;0.256755;209.0;NaN;83.3427;1.25;28.0;122.2;11 / 19;40505;2015-03-03 13:57:46:060
-1.5071;3.0737;9.0897;-1.486;3.0617;9.1972;0.0493;0.0915;-0.0415;-0.0165;0.0019;0.0045;15.82;-21.93;-32.6;226.6;-18.15;9.17;1003.16;55.696;51.89199;0.256755;209.0;NaN;83.3427;1.25;28.0;122.2;11 / 19;41005;2015-03-03 13:57:46:560
-2.3616;3.3427;9.0683;-1.4838;3.0416;9.2042;0.1538;0.1392;0.0011;0.007;-0.0921;0.0344;17.93;-21.93;-33.28;231.61;-18.13;9.26;1003.18;61.996;51.89199;0.256755;209.0;NaN;83.17237;1.25;28.0;122.2;11 / 19;41504;2015-03-03 13:57:47:059
-1.6427;2.9309;9.1397;-1.4949;3.0506;9.1994;0.0884;0.058;-0.0302;-0.024;-0.0259;-8.0E-4;17.22;-21.58;-31.91;228.69;-18.12;9.23;1003.17;64.281;51.89199;0.256755;209.0;NaN;83.25804;1.25;28.0;122.2;11 / 19;42005;2015-03-03 13:57:47:560
-1.469;3.1166;9.0445;-1.4965;3.0368;9.2037;0.0348;0.0453;-0.0311;-0.0176;0.0147;0.0056;17.22;-20.88;-31.57;231.26;-18.04;9.24;1003.19;61.524;51.89199;0.256755;209.0;NaN;83.087715;1.25;28.0;122.2;11 / 19;42505;2015-03-03 13:57:48:060
-1.5023;0.4125;9.9704;-1.4465;3.2292;9.146;-0.0212;-0.4492;0.0676;0.0593;-0.1584;-0.348;18.28;-20.53;-31.23;233.91;-18.38;9.11;1003.19;64.49;51.89199;0.256755;209.0;NaN;83.087715;1.25;28.0;122.2;11 / 19;43006;2015-03-03 13:57:48:561
-0.1717;3.0071;9.2944;-0.9192;2.8816;9.3286;0.2624;-0.3985;0.2;-0.0464;0.0061;0.1071;15.64;-20.0;-33.79;236.2;-17.69;6.01;1003.19;68.517;51.89199;0.256755;209.0;NaN;83.087715;1.25;28.0;122.2;11 / 19;43505;2015-03-03 13:57:49:060
-1.0358;2.9119;9.1801;-1.1892;2.8146;9.3185;0.2897;-0.0594;-0.0142;0.0262;0.0392;-0.0062;15.99;-20.35;-34.47;233.22;-16.78;6.84;1003.19;59.351;51.89199;0.256755;209.0;NaN;83.087715;1.25;28.0;122.2;11 / 19;44005;2015-03-03 13:57:49:560
-1.0238;2.9214;9.2016;-1.098;2.8668;9.3138;0.0769;0.0779;-0.049;-0.0154;0.0083;0.0109;15.99;-19.65;-32.77;232.95;-17.02;6.97;1003.19;57.893;51.89199;0.256755;209.0;NaN;83.087715;1.25;28.0;122.2;0 / 19;44505;2015-03-03 13:57:50:060
-0.9786;3.457;9.2682;-1.1221;2.9078;9.2982;0.0417;0.057;0.0073;-0.0197;0.0072;0.0034;17.75;-20.7;-33.45;235.1;-17.12;6.65;1003.19;55.889;51.89199;0.256755;209.0;NaN;83.087715;1.25;28.0;122.2;0 / 19;45006;2015-03-03 13:57:50:561
-1.1238;2.8785;9.1516;-1.122;2.8924;9.303;0.0165;0.0523;-0.0055;-0.0165;0.0083;0.0088;16.7;-18.25;-32.77;241.95;-17.22;6.87;1003.2;59.682;51.89199;0.256755;209.0;NaN;83.00306;1.25;28.0;122.2;1 / 19;45505;2015-03-03 13:57:51:060
-1.0762;2.95;9.0992;-1.1167;2.8989;9.3016;0.0511;0.0546;-0.0202;-0.0144;0.0115;0.0088;17.93;-20.53;-34.3;235.65;-17.2;6.85;1003.2;52.151;51.89199;0.256755;209.0;NaN;83.00306;1.25;28.0;122.2;1 / 19;46007;2015-03-03 13:57:51:562
-1.0667;2.9833;9.2159;-1.1129;2.9053;9.3;0.0251;0.0768;0.0115;-0.0176;0.0072;0.0099;15.47;-20.18;-33.28;231.06;-17.23;6.82;1003.2;54.444;51.89199;0.256755;209.0;NaN;83.00306;1.25;28.0;122.2;1 / 19;46504;2015-03-03 13:57:52:059
-1.0762;2.9238;9.2754;-1.1099;2.9044;9.3007;0.0455;0.0801;0.0057;-0.0165;0.004;0.0088;17.05;-20.0;-34.81;237.18;-17.24;6.83;1003.21;52.069;51.89199;0.256755;209.0;NaN;82.91739;1.25;28.0;122.2;1 / 19;47005;2015-03-03 13:57:52:560
-1.0548;2.9642;9.1825;-1.1166;2.9062;9.2993;7.0E-4;0.0703;-0.0375;-0.0154;0.0072;0.0099;16.87;-19.47;-32.6;238.84;-17.22;6.78;1003.22;52.697;51.89199;0.256755;209.0;NaN;82.83273;1.25;28.0;122.2;1 / 19;47505;2015-03-03 13:57:53:060
-1.081;2.9523;9.2254;-1.1162;2.9025;9.3006;0.0512;0.053;-0.0361;-0.0176;0.0093;0.0099;16.17;-18.77;-33.96;237.38;-17.26;6.88;1003.2;54.136;51.89199;0.256755;209.0;NaN;83.00306;1.25;28.0;122.2;1 / 19;48005;2015-03-03 13:57:53:560
-1.4856;3.6379;8.6327;-1.1376;2.901;9.2984;-0.0295;0.1092;-0.0475;-0.0101;-0.0024;-0.0799;16.52;-20.18;-33.28;235.62;-17.21;6.98;1003.2;57.386;51.89199;0.256755;209.0;NaN;83.00306;1.25;28.0;122.2;1 / 19;48505;2015-03-03 13:57:54:060
-1.3833;2.5596;9.1421;-1.1768;2.9385;9.2817;0.3625;0.187;-0.1216;-0.0336;-0.0206;0.0152;17.05;-17.55;-33.11;242.61;-17.78;7.62;1003.19;62.177;51.89199;0.256755;209.0;NaN;83.087715;1.25;28.0;122.2;1 / 19;49005;2015-03-03 13:57:54:560
-1.1;2.919;9.2516;-1.319;2.9553;9.2573;0.0785;0.0579;0.0236;0.0102;0.0243;-0.0307;18.45;-18.6;-34.13;241.04;-17.54;8.11;1003.19;55.177;51.89199;0.256755;209.0;NaN;83.087715;1.25;28.0;122.2;1 / 19;49505;2015-03-03 13:57:55:060
-1.2286;2.9571;9.1801;-1.2904;2.9423;9.2654;0.059;0.0459;-0.0222;-0.0144;0.0093;0.0088;16.7;-20.0;-33.11;235.19;-17.52;7.97;1003.19;62.548;51.89199;0.256755;209.0;NaN;83.087715;1.25;28.0;122.2;1 / 19;50005;2015-03-03 13:57:55:560
-1.2333;2.9785;9.1706;-1.258;2.9364;9.2718;0.0508;0.0926;0.0256;-0.0176;0.0072;0.0067;18.98;-18.07;-32.6;245.33;-17.45;7.78;1003.21;63.469;51.89199;0.256755;209.0;NaN;82.91739;1.25;28.0;122.2;1 / 19;50505;2015-03-03 13:57:56:060
-1.2095;2.9666;9.0849;-1.2565;2.926;9.2752;0.0358;0.0608;-0.0456;-0.0186;0.0051;0.0088;16.87;-18.77;-33.96;238.96;-17.39;7.74;1003.21;54.967;51.89199;0.256755;209.0;NaN;82.91739;1.25;28.0;122.2;1 / 19;51006;2015-03-03 13:57:56:561
-1.219;2.9857;9.1087;-1.2489;2.9303;9.2749;0.0403;0.0776;-0.0389;-0.0176;0.0083;0.0099;17.4;-19.3;-31.74;237.54;-17.38;7.73;1003.2;53.018;51.89199;0.256755;209.0;NaN;83.00306;1.25;28.0;122.2;1 / 19;51506;2015-03-03 13:57:57:061
-1.2381;2.9619;9.104;-1.2611;2.9228;9.2756;0.0039;0.0755;-0.0575;-0.0154;0.0093;0.0067;19.69;-18.42;-33.62;247.42;-17.34;7.74;1003.19;54.558;51.89199;0.256755;209.0;NaN;83.087715;1.25;28.0;122.2;1 / 19;52007;2015-03-03 13:57:57:562
-1.2428;2.9333;9.0968;-1.2509;2.9237;9.2767;0.0461;0.082;-0.0439;-0.0165;0.0083;0.0077;19.16;-18.6;-32.42;241.43;-17.35;7.68;1003.19;53.382;51.89199;0.256755;209.0;NaN;83.087715;1.25;28.0;122.2;1 / 19;52504;2015-03-03 13:57:58:059
-1.2333;2.9595;9.2349;-1.2498;2.9289;9.2752;0.0069;0.0974;-0.0196;-0.0186;0.0051;0.0099;18.81;-18.95;-32.42;241.43;-17.35;7.69;1003.2;52.854;51.89199;0.256755;209.0;NaN;83.00306;1.25;28.0;122.2;1 / 19;53005;2015-03-03 13:57:58:560
-1.2262;2.9642;9.0802;-1.2524;2.923;9.2768;0.019;0.0748;0.0056;-0.0165;0.004;0.0067;18.81;-18.6;-31.06;240.72;-17.34;7.72;1003.19;58.622;51.89199;0.256755;209.0;NaN;83.087715;1.25;28.0;122.2;1 / 19;53505;2015-03-03 13:57:59:060
-1.2595;2.9595;9.1801;-1.2526;2.9302;9.2744;-7.0E-4;0.0738;-0.0087;-0.0165;0.0083;0.0099;17.58;-18.07;-32.94;243.52;-17.39;7.69;1003.19;47.435;51.89199;0.256755;209.0;NaN;83.087715;1.25;28.0;122.2;1 / 19;54005;2015-03-03 13:57:59:560
-1.2;2.9547;9.1635;-1.2557;2.9286;9.2745;0.0316;0.0837;-0.0145;5.0E-4;0.0011;0.0;17.05;-19.3;-32.77;238.11;-17.34;7.76;1003.19;53.362;51.89199;0.256755;209.0;NaN;83.087715;1.25;28.0;122.2;1 / 19;54506;2015-03-03 13:58:00:061
-1.2476;2.9523;9.1706;-1.2464;2.9764;9.2606;0.0113;0.0445;-0.0088;0.0016;0.0011;0.0;18.81;-16.5;-32.42;251.35;-17.57;7.67;1003.2;57.287;51.89199;0.256755;209.0;NaN;83.00306;1.25;28.0;122.2;1 / 19;55005;2015-03-03 13:58:00:560
-1.2381;3.0047;9.2135;-1.2387;2.9882;9.2578;-0.0196;0.0434;-0.0128;-6.0E-4;0.0011;0.0011;17.93;-19.13;-32.6;241.1;-17.7;7.62;1003.23;68.445;51.89199;0.256755;209.0;NaN;82.74706;1.25;28.0;122.2;1 / 19;55505;2015-03-03 13:58:01:060
-1.2214;2.919;9.123;-1.2455;2.999;9.2534;-0.0088;-0.0108;0.0059;-6.0E-4;1.0E-4;-0.0011;18.45;-18.95;-34.47;242.1;-17.79;7.61;1003.25;66.035;51.89199;0.256755;209.0;NaN;82.577736;1.25;28.0;122.2;1 / 19;56005;2015-03-03 13:58:01:560
-1.3309;2.8381;9.1302;-1.2397;3.0055;9.2521;-0.008;0.0129;-0.0299;-6.0E-4;-0.0031;0.0022;18.28;-19.47;-32.6;241.34;-17.82;7.66;1003.26;56.374;51.89199;0.256755;209.0;NaN;82.492065;1.25;28.0;122.2;1 / 19;56506;2015-03-03 13:58:02:061
-1.1762;3.0285;9.2016;-1.2234;2.9976;9.2568;-0.0049;-0.0081;-0.0514;5.0E-4;-0.001;0.0;17.58;-19.13;-34.3;242.2;-17.81;7.54;1003.23;57.781;51.89199;0.256755;209.0;NaN;82.74706;1.25;28.0;122.2;1 / 19;57005;2015-03-03 13:58:02:560
-1.2238;2.95;9.104;-1.2389;3.0152;9.249;-0.0468;0.0062;-0.0596;0.0016;0.0022;0.0;18.63;-19.13;-33.62;244.12;-17.88;7.57;1003.23;67.593;51.89199;0.256755;209.0;NaN;82.74706;1.25;28.0;122.2;1 / 19;57507;2015-03-03 13:58:03:062
-1.2333;3.0095;9.2206;-1.2491;3.0119;9.2487;-0.0024;0.0106;0.021;5.0E-4;0.0011;-0.0011;18.63;-18.42;-32.26;245.56;-17.88;7.66;1003.23;68.989;51.89199;0.256755;209.0;NaN;82.74706;1.25;28.0;122.2;1 / 19;58005;2015-03-03 13:58:03:560
-1.2428;2.969;9.104;-1.2516;3.0097;9.2491;-0.0091;0.0086;0.0157;-6.0E-4;0.0011;0.0;19.86;-19.65;-32.77;242.03;-17.87;7.71;1003.23;56.804;51.89199;0.256755;209.0;NaN;82.74706;1.25;28.0;122.2;1 / 19;58505;2015-03-03 13:58:04:060
-1.25;2.9761;9.1468;-1.2496;3.0144;9.2478;5.0E-4;-0.0043;-0.0073;-6.0E-4;1.0E-4;0.0;18.28;-18.77;-33.28;241.45;-17.88;7.69;1003.21;64.683;51.89199;0.256755;209.0;NaN;82.91739;1.25;28.0;122.2;1 / 19;59005;2015-03-03 13:58:04:560
-1.1976;2.9095;9.0826;-1.2432;3.0072;9.251;0.0215;-0.0141;0.0073;-0.0016;1.0E-4;0.0011;17.4;-19.65;-33.11;236.33;-17.89;7.67;1003.22;51.213;51.89199;0.256755;209.0;NaN;82.83273;1.25;28.0;122.2;1 / 19;59507;2015-03-03 13:58:05:062
-1.2571;2.9642;9.1159;-1.2506;3.0034;9.2513;-0.0025;0.0063;-0.049;-6.0E-4;1.0E-4;-0.0021;17.58;-18.07;-33.28;244.56;-17.82;7.66;1003.22;58.262;51.89199;0.256755;209.0;NaN;82.83273;1.25;28.0;122.2;1 / 19;60005;2015-03-03 13:58:05:560
-1.1976;2.9642;9.1135;-1.2503;3.0096;9.2493;0.0075;-0.0104;0.026;-6.0E-4;-0.001;0.0;17.05;-17.9;-33.45;242.77;-17.89;7.73;1003.22;54.942;51.89199;0.256755;209.0;NaN;82.83273;1.25;28.0;122.2;1 / 19;60504;2015-03-03 13:58:06:059
-1.2762;2.9809;9.2087;-1.2419;3.0035;9.2524;-0.0196;0.0202;0.0123;-6.0E-4;-0.001;-0.0011;17.93;-19.13;-33.96;242.16;-17.83;7.64;1003.21;61.777;51.89199;0.256755;209.0;NaN;82.91739;1.25;28.0;122.2;1 / 19;61005;2015-03-03 13:58:06:560
-1.2095;2.9952;9.1421;-1.2512;2.9978;9.253;-0.0091;-0.0256;-0.0252;-0.0027;-0.001;-0.0021;18.81;-18.6;-34.47;243.83;-17.8;7.7;1003.2;52.64;51.89199;0.256755;209.0;NaN;83.00306;1.25;28.0;122.2;1 / 19;61505;2015-03-03 13:58:07:060
-1.2333;2.9571;9.1754;-1.2493;3.0079;9.25;-0.0168;0.0024;0.0214;-6.0E-4;1.0E-4;-0.0021;18.81;-18.95;-35.15;244.79;-17.86;7.67;1003.18;52.822;51.89199;0.256755;209.0;NaN;83.17237;1.25;28.0;122.2;1 / 19;62007;2015-03-03 13:58:07:562
-1.2024;2.9404;9.1016;-1.2377;2.9972;9.255;0.0101;0.0047;0.0026;-0.0016;-0.0021;-0.0011;19.16;-20.0;-34.13;240.83;-17.78;7.67;1003.16;49.49;51.89199;0.256755;209.0;NaN;83.3427;1.25;28.0;122.2;1 / 19;62506;2015-03-03 13:58:08:061
-1.2238;2.919;9.0921;-1.2449;3.0145;9.2484;-0.003;0.0046;-0.0498;5.0E-4;-0.001;0.0011;18.98;-19.13;-32.6;243.22;-17.85;7.65;1003.15;51.287;51.89199;0.256755;209.0;NaN;83.427345;1.25;28.0;122.2;1 / 19;63005;2015-03-03 13:58:08:560
-1.1905;2.9785;9.0849;-1.2456;3.0062;9.251;0.0075;0.0144;0.0081;5.0E-4;1.0E-4;-0.0011;18.1;-18.95;-33.45;241.4;-17.85;7.68;1003.13;56.357;51.89199;0.256755;209.0;NaN;83.59867;1.25;28.0;122.2;1 / 19;63505;2015-03-03 13:58:09:060
-1.219;2.9452;9.1278;-1.2359;3.0075;9.2519;-0.0247;-0.0074;0.0165;-0.0016;0.0011;-0.0011;17.4;-18.6;-33.11;239.49;-17.87;7.61;1003.12;61.207;51.89199;0.256755;209.0;NaN;83.68333;1.25;28.0;122.2;1 / 19;64006;2015-03-03 13:58:09:561
-1.1905;2.9809;9.054;-1.2474;3.0123;9.2488;-0.0033;-0.014;-0.0104;5.0E-4;0.0011;0.0011;18.81;-18.25;-33.11;246.35;-17.87;7.67;1003.1;58.381;51.89199;0.256755;209.0;NaN;83.85364;1.25;28.0;122.2;1 / 19;64506;2015-03-03 13:58:10:061
-1.2309;2.9476;9.1278;-1.2385;3.0073;9.2516;0.0068;0.0043;0.0462;-6.0E-4;1.0E-4;0.0011;18.98;-18.07;-32.26;245.6;-17.89;7.63;1003.09;55.429;51.89199;0.256755;209.0;NaN;83.938286;1.25;28.0;122.2;1 / 19;65005;2015-03-03 13:58:10:560
-1.25;2.9761;9.1468;-1.2443;3.002;9.2526;-0.0203;0.0094;0.0209;5.0E-4;1.0E-4;-0.0011;17.4;-17.55;-33.79;243.59;-17.82;7.61;1003.12;58.976;51.89199;0.256755;209.0;NaN;83.68333;1.25;28.0;122.2;1 / 19;65505;2015-03-03 13:58:11:060
-1.2595;2.9761;9.2016;-1.2479;3.0109;9.2492;-0.013;0.0244;0.0069;-0.0016;-0.0021;-0.0011;19.86;-18.25;-33.11;247.86;-17.88;7.68;1003.16;63.094;51.89199;0.256755;209.0;NaN;83.3427;1.25;28.0;122.2;1 / 19;66005;2015-03-03 13:58:11:560
-1.2167;2.9785;9.1611;-1.2381;3.0082;9.2514;0.0072;0.0107;0.0066;-6.0E-4;-0.001;-0.0011;19.16;-18.25;-35.15;248.04;-17.87;7.65;1003.17;52.862;51.89199;0.256755;209.0;NaN;83.25804;1.25;28.0;122.2;1 / 19;66505;2015-03-03 13:58:12:060
-1.269;3.0047;9.1492;-1.2398;3.01;9.2506;-0.0193;0.0079;0.022;0.0016;0.0022;0.0011;19.16;-17.9;-33.79;247.22;-17.87;7.6;1003.16;53.87;51.89199;0.256755;209.0;NaN;83.25804;1.25;28.0;122.2;1 / 19;67009;2015-03-03 13:58:12:564
-1.2167;2.9619;9.173;-1.2441;3.0083;9.2505;0.0014;0.0083;0.0408;-0.0016;1.0E-4;-0.0021;17.4;-18.25;-33.11;242.8;-17.88;7.67;1003.17;54.732;51.89199;0.256755;209.0;NaN;83.25804;1.25;28.0;122.2;1 / 19;67505;2015-03-03 13:58:13:060
-1.2048;2.9452;9.1064;-1.2404;3.0006;9.2536;-0.0119;0.0067;-0.0127;-0.0016;-0.0021;-0.0021;17.58;-18.42;-33.28;244.63;-17.84;7.62;1003.15;58.387;51.89199;0.256755;209.0;NaN;83.427345;1.25;28.0;122.2;1 / 19;68005;2015-03-03 13:58:13:560
-1.2333;2.9857;9.1087;-1.2405;3.0034;9.2526;0.0229;-9.0E-4;-0.0221;-6.0E-4;-0.001;-0.0011;19.16;-19.3;-34.81;244.68;-17.81;7.65;1003.16;58.607;51.89199;0.256755;209.0;NaN;83.3427;1.25;28.0;122.2;1 / 19;68505;2015-03-03 13:58:14:060
-1.2928;2.9761;9.1087;-1.244;3.0079;9.2507;-0.033;0.0017;0.0371;-6.0E-4;-0.001;0.0;17.93;-17.72;-33.28;244.71;-17.86;7.59;1003.16;56.155;51.89199;0.256755;209.0;NaN;83.3427;1.25;28.0;122.2;1 / 19;69005;2015-03-03 13:58:14:560
-1.1762;2.9666;9.1587;-1.2514;3.004;9.251;-0.0017;0.004;-0.0289;-6.0E-4;1.0E-4;0.0011;18.45;-18.6;-32.77;241.36;-17.85;7.72;1003.16;57.885;51.89199;0.256755;209.0;NaN;83.3427;1.25;28.0;122.2;1 / 19;69506;2015-03-03 13:58:15:061
-1.2;2.9595;9.0849;-1.238;3.014;9.2495;-0.0117;0.0026;6.0E-4;-0.0016;-0.001;0.0;17.22;-19.83;-33.28;236.41;-17.89;7.6;1003.15;56.458;51.89199;0.256755;209.0;NaN;83.427345;1.25;28.0;122.2;1 / 19;70005;2015-03-03 13:58:15:560
-1.2238;3.0285;9.2159;-1.2562;3.006;9.2497;-0.0029;-0.0102;0.0517;5.0E-4;0.0011;-0.0021;17.93;-19.13;-32.26;240.7;-17.89;7.71;1003.17;51.71;51.89199;0.256755;209.0;NaN;83.25804;1.25;28.0;122.2;1 / 19;70505;2015-03-03 13:58:16:060
-1.2405;2.9619;9.1849;-1.2346;3.0042;9.2532;-0.0187;0.011;0.0399;-6.0E-4;-0.0021;-0.0011;18.45;-18.95;-33.79;242.18;-17.83;7.61;1003.18;54.701;51.89199;0.256755;209.0;NaN;83.17237;1.25;28.0;122.2;1 / 19;71005;2015-03-03 13:58:16:560
-1.2167;2.9642;9.0873;-1.2509;3.0039;9.2511;-0.025;-0.0016;-0.0614;-6.0E-4;1.0E-4;-0.0021;19.16;-19.65;-32.77;240.28;-17.84;7.64;1003.19;55.091;51.89199;0.256755;209.0;NaN;83.087715;1.25;28.0;122.2;1 / 19;71505;2015-03-03 13:58:17:060
-1.1857;2.969;9.1064;-1.2364;3.0066;9.2521;0.0316;0.0082;0.0326;-0.0016;-0.001;0.0011;17.75;-18.6;-32.42;240.68;-17.87;7.7;1003.19;55.418;51.89199;0.256755;209.0;NaN;83.087715;1.25;28.0;122.2;1 / 19;72005;2015-03-03 13:58:17:560
-1.2643;2.988;9.0968;-1.2429;3.0054;9.2517;-0.0127;0.0045;-0.0183;5.0E-4;0.0011;0.0011;17.75;-20.0;-32.42;237.7;-17.85;7.65;1003.2;56.32;51.89199;0.256755;209.0;NaN;83.00306;1.25;28.0;122.2;1 / 19;72505;2015-03-03 13:58:18:060
-1.2405;2.9428;9.1968;-1.2427;3.0047;9.2519;0.0058;0.0048;-0.0109;-0.0016;-0.0021;0.0;19.16;-18.95;-33.11;243.18;-17.84;7.67;1003.19;58.379;51.89199;0.256755;209.0;NaN;83.087715;1.25;28.0;122.2;1 / 19;73005;2015-03-03 13:58:18:560
-1.2309;2.9547;9.0183;-1.2449;3.0084;9.2504;-0.0112;0.0074;0.0234;0.0016;0.0011;0.0;19.86;-17.2;-34.47;251.82;-17.87;7.65;1003.18;58.733;51.89199;0.256755;209.0;NaN;83.17237;1.25;28.0;122.2;1 / 19;73504;2015-03-03 13:58:19:059
-1.2309;2.9476;9.073;-1.2391;2.9997;9.254;0.0084;-0.0061;-0.061;-6.0E-4;-0.001;-0.0021;19.16;-17.55;-32.77;246.25;-17.83;7.67;1003.16;55.465;51.89199;0.256755;209.0;NaN;83.3427;1.25;28.0;122.2;1 / 19;74005;2015-03-03 13:58:19:560
-1.2738;3.0118;9.1492;-1.2453;3.0107;9.2496;-0.0026;-0.0073;-0.0433;0.0016;-0.0021;-0.0011;18.1;-16.85;-33.45;248.09;-17.87;7.66;1003.15;53.805;51.89199;0.256755;209.0;NaN;83.427345;1.25;28.0;122.2;1 / 19;74505;2015-03-03 13:58:20:060
-1.2547;2.9999;9.0802;-1.2427;3.0053;9.2517;0.0087;0.0189;-0.0314;-0.0027;-0.001;-0.0011;18.1;-19.65;-33.11;238.3;-17.83;7.69;1003.16;51.705;51.89199;0.256755;209.0;NaN;83.3427;1.25;28.0;122.2;1 / 19;75006;2015-03-03 13:58:20:561
-1.2666;2.9714;9.1183;-1.2452;3.0088;9.2502;0.0062;0.0057;0.051;5.0E-4;-0.001;-0.0011;18.98;-17.72;-33.96;247.21;-17.88;7.67;1003.15;58.674;51.89199;0.256755;209.0;NaN;83.427345;1.25;28.0;122.2;1 / 19;75505;2015-03-03 13:58:21:060
-1.2286;2.95;9.1254;-1.2414;3.0062;9.2516;0.0091;-0.0148;-0.0563;-0.0016;-0.001;0.0;17.58;-18.77;-32.6;241.38;-17.84;7.66;1003.14;58.958;51.89199;0.256755;209.0;NaN;83.51301;1.25;28.0;122.2;1 / 19;76005;2015-03-03 13:58:21:560
-1.2547;2.9809;9.1635;-1.2359;3.0093;9.2513;0.0037;-0.006;-0.0275;-0.0048;-0.0063;-0.0011;16.7;-18.25;-34.13;243.73;-17.87;7.6;1003.14;55.276;51.89199;0.256755;209.0;NaN;83.51301;1.25;28.0;122.2;1 / 19;76505;2015-03-03 13:58:22:060
-1.2381;2.988;9.1659;-1.2438;3.0042;9.2519;-0.0041;0.0049;0.0061;0.0016;0.0022;0.0022;17.93;-18.07;-33.62;245.48;-17.84;7.64;1003.15;55.507;51.89199;0.256755;209.0;NaN;83.427345;1.25;28.0;122.2;1 / 19;77006;2015-03-03 13:58:22:561
-1.2619;2.9761;9.192;-1.2439;3.0112;9.2496;0.005;0.0243;0.0331;-6.0E-4;1.0E-4;-0.0021;17.58;-20.18;-32.94;238.41;-17.87;7.66;1003.15;69.246;51.89199;0.256755;209.0;NaN;83.427345;1.25;28.0;122.2;1 / 19;77505;2015-03-03 13:58:23:060
-1.2547;2.9547;9.123;-1.2513;3.0137;9.2478;-0.0044;-0.0093;-0.0198;-0.0016;1.0E-4;0.0;19.16;-19.65;-32.77;240.39;-17.9;7.67;1003.15;53.013;51.89199;0.256755;209.0;NaN;83.427345;1.25;28.0;122.2;1 / 19;78005;2015-03-03 13:58:23:560
-1.2238;3.019;9.0802;-1.2382;3.0133;9.2497;0.0092;0.0174;-0.0269;-6.0E-4;-0.001;-0.0021;18.1;-17.9;-34.47;245.58;-17.89;7.65;1003.16;53.181;51.89199;0.256755;209.0;NaN;83.3427;1.25;28.0;122.2;1 / 19;78505;2015-03-03 13:58:24:060
-1.2357;3.0285;9.1611;-1.2454;3.0098;9.2499;0.0043;-0.0101;0.0144;-6.0E-4;-0.001;-0.0011;19.33;-18.77;-33.28;243.32;-17.89;7.65;1003.16;61.018;51.89199;0.256755;209.0;NaN;83.3427;1.25;28.0;122.2;1 / 19;79006;2015-03-03 13:58:24:561
-1.2619;2.9833;9.0445;-1.2539;3.0164;9.2466;-0.0214;-0.0048;-0.0342;-6.0E-4;-0.001;0.0;18.98;-19.13;-31.91;242.57;-17.91;7.72;1003.18;50.093;51.89199;0.256755;209.0;NaN;83.17237;1.25;28.0;122.2;1 / 19;79505;2015-03-03 13:58:25:060
-1.2262;2.9738;9.1873;-1.2412;3.0086;9.2508;-0.0188;-0.0105;0.0169;-0.0016;-0.001;0.0011;19.51;-18.25;-32.77;247.88;-17.88;7.66;1003.19;52.764;51.89199;0.256755;209.0;NaN;83.087715;1.25;28.0;122.2;1 / 19;80005;2015-03-03 13:58:25:560
-1.269;2.969;9.2254;-1.2464;3.0103;9.2496;-0.0163;0.0165;0.0084;-0.0038;-0.001;-0.0021;17.4;-20.0;-33.11;236.3;-17.87;7.65;1003.2;56.058;51.89199;0.256755;209.0;NaN;83.00306;1.25;28.0;122.2;1 / 19;80505;2015-03-03 13:58:26:060
-1.2357;2.9761;9.1064;-1.2494;3.0068;9.2503;-4.0E-4;-0.0016;-0.0179;-6.0E-4;-0.0031;0.0;18.28;-17.72;-33.96;245.47;-17.85;7.69;1003.19;62.198;51.89199;0.256755;209.0;NaN;83.087715;1.25;28.0;122.2;1 / 19;81005;2015-03-03 13:58:26:560
-1.2476;2.9928;9.1278;-1.2453;3.0162;9.2478;-0.0133;-0.0093;0.0165;-0.0016;-0.0031;-0.0011;17.22;-17.02;-33.62;247.43;-17.9;7.65;1003.17;56.591;51.89199;0.256755;209.0;NaN;83.25804;1.25;28.0;122.2;1 / 19;81505;2015-03-03 13:58:27:060
-1.2666;2.988;9.1421;-1.2468;3.0008;9.2526;-0.0061;0.0157;-0.0093;-0.0016;-0.001;-0.0011;19.69;-19.47;-32.26;243.99;-17.79;7.67;1003.14;54.857;51.89199;0.256755;209.0;NaN;83.51301;1.25;28.0;122.2;1 / 19;82005;2015-03-03 13:58:27:560
-1.2119;2.9666;9.1611;-1.2421;3.0161;9.2483;0.0128;-0.0116;0.0016;-6.0E-4;1.0E-4;0.0022;17.4;-17.9;-33.11;242.83;-17.88;7.66;1003.14;56.168;51.89199;0.256755;209.0;NaN;83.51301;1.25;28.0;122.2;1 / 19;82505;2015-03-03 13:58:28:060
-1.2309;3.0285;9.0778;-1.2417;3.0106;9.2501;-5.0E-4;0.0236;-0.011;-6.0E-4;-0.001;0.0;17.4;-17.2;-33.45;246.32;-17.85;7.64;1003.12;59.8;51.89199;0.256755;209.0;NaN;83.68333;1.25;28.0;122.2;1 / 19;83006;2015-03-03 13:58:28:561
-1.2595;3.0095;9.2325;-1.244;3.0098;9.2501;-0.0101;-0.001;0.0181;-0.0016;0.0011;0.0;18.63;-16.67;-34.98;251.52;-17.9;7.66;1003.13;54.963;51.89199;0.256755;209.0;NaN;83.59867;1.25;28.0;122.2;1 / 19;83508;2015-03-03 13:58:29:063
-1.2333;3.038;9.0373;-1.2469;3.011;9.2493;-0.0175;0.0293;-0.061;-0.0027;-0.0031;0.0;18.81;-17.9;-33.45;246.37;-17.88;7.68;1003.13;54.68;51.89199;0.256755;209.0;NaN;83.59867;1.25;28.0;122.2;1 / 19;84005;2015-03-03 13:58:29:560
-1.2262;2.9452;9.2039;-1.2449;3.013;9.2489;0.0103;-0.0015;-0.0224;-6.0E-4;-0.0021;-0.0011;17.58;-18.42;-33.28;244.73;-17.89;7.67;1003.13;57.424;51.89199;0.256755;209.0;NaN;83.59867;1.25;28.0;122.2;1 / 19;84505;2015-03-03 13:58:30:060
-1.2857;2.9666;9.0706;-1.2506;3.0057;9.2505;-0.0105;0.033;-0.0363;-0.0027;-0.0021;-0.0021;18.45;-18.95;-33.45;241.34;-17.82;7.67;1003.12;53.737;51.89199;0.256755;209.0;NaN;83.68333;1.25;28.0;122.2;1 / 19;85005;2015-03-03 13:58:30:560
-1.2143;2.9476;9.0945;-1.2445;3.0047;9.2517;0.0169;-0.0013;-0.0152;-0.0016;-0.001;0.0011;18.28;-18.77;-32.94;241.41;-17.86;7.68;1003.12;52.954;51.89199;0.256755;209.0;NaN;83.68333;1.25;28.0;122.2;1 / 19;85506;2015-03-03 13:58:31:061
-1.2738;2.9976;9.0921;-1.2559;3.0123;9.2477;-0.0129;0.0131;0.0107;-6.0E-4;1.0E-4;-0.0021;17.4;-19.65;-34.47;236.96;-17.89;7.73;1003.13;59.283;51.89199;0.256755;209.0;NaN;83.59867;1.25;28.0;122.2;1 / 19;86006;2015-03-03 13:58:31:561
-1.2333;2.9761;9.1635;-1.2443;3.0048;9.2517;0.0245;0.0168;-0.01;5.0E-4;-0.001;-0.0011;18.1;-18.25;-33.45;244.57;-17.84;7.7;1003.15;53.504;51.89199;0.256755;209.0;NaN;83.427345;1.25;28.0;122.2;1 / 19;86505;2015-03-03 13:58:32:060
-1.25;2.9928;9.1254;-1.2497;3.0125;9.2484;-0.0139;0.0207;-0.0204;5.0E-4;1.0E-4;-0.0032;18.81;-15.8;-33.11;253.0;-17.88;7.66;1003.15;56.788;51.89199;0.256755;209.0;NaN;83.427345;1.25;28.0;122.2;1 / 19;87005;2015-03-03 13:58:32:560
-1.2048;2.9857;9.1159;-1.2504;3.0084;9.2497;-0.0065;0.004;-6.0E-4;-0.0016;-0.001;0.0;18.45;-18.25;-33.45;244.64;-17.87;7.72;1003.17;55.912;51.89199;0.256755;209.0;NaN;83.25804;1.25;28.0;122.2;1 / 19;87507;2015-03-03 13:58:33:062
-1.2666;2.9571;9.1254;-1.2473;3.0071;9.2505;-0.0025;0.0086;0.0094;-0.0027;-0.001;-0.0011;19.33;-20.18;-32.26;239.62;-17.86;7.68;1003.18;52.732;51.89199;0.256755;209.0;NaN;83.17237;1.25;28.0;122.2;1 / 19;88006;2015-03-03 13:58:33:561
-1.2333;2.9547;9.173;-1.2609;3.0108;9.2475;0.0263;0.0145;-0.0192;-0.0016;1.0E-4;0.0011;18.63;-18.42;-33.96;247.04;-17.83;7.75;1003.18;60.198;51.89199;0.256755;209.0;NaN;83.17237;1.25;28.0;122.2;1 / 19;88505;2015-03-03 13:58:34:060
-1.2714;2.95;9.2206;-1.2557;3.0112;9.248;-0.0142;0.0137;-0.0215;-6.0E-4;1.0E-4;-0.0011;19.33;-18.42;-31.91;245.51;-17.87;7.73;1003.19;49.998;51.89199;0.256755;209.0;NaN;83.087715;1.25;28.0;122.2;1 / 19;89005;2015-03-03 13:58:34:560
-1.2214;2.9809;9.1492;-1.2485;3.0078;9.2501;0.0153;0.0365;0.0104;5.0E-4;-0.001;-0.0011;17.22;-18.77;-34.64;240.83;-17.8;7.69;1003.21;57.694;51.89199;0.256755;209.0;NaN;82.91739;1.25;28.0;122.2;1 / 19;89505;2015-03-03 13:58:35:060
-1.2286;2.9547;9.0921;-1.2506;3.0087;9.2496;0.0169;-0.0129;-0.0254;-0.0016;-0.0021;-0.0011;18.45;-17.9;-32.08;243.84;-17.87;7.68;1003.21;55.536;51.89199;0.256755;209.0;NaN;82.91739;1.25;28.0;122.2;1 / 19;90005;2015-03-03 13:58:35:560
-1.1857;2.9976;9.1444;-1.2551;3.013;9.2476;-0.0095;0.0092;-0.0033;-0.0038;-0.0021;-0.0021;18.28;-18.07;-32.94;244.67;-17.89;7.73;1003.2;53.948;51.89199;0.256755;209.0;NaN;83.00306;1.25;28.0;122.2;1 / 19;90505;2015-03-03 13:58:36:060
-1.2476;2.9857;9.123;-1.2491;3.0078;9.25;0.0051;0.0248;-0.0149;-0.0038;-0.0021;0.0;18.98;-19.13;-31.91;242.48;-17.87;7.71;1003.21;55.512;51.89199;0.256755;209.0;NaN;82.91739;1.25;28.0;122.2;1 / 19;91011;2015-03-03 13:58:36:566
-1.2595;2.9619;9.123;-1.2578;3.0146;9.2466;-0.0246;0.0206;-0.0173;-6.0E-4;1.0E-4;0.0011;17.75;-18.6;-33.45;241.44;-17.88;7.71;1003.21;54.417;51.89199;0.256755;209.0;NaN;82.91739;1.25;28.0;122.2;0 / 19;91505;2015-03-03 13:58:37:060
-1.25;2.9833;9.1302;-1.2553;3.0042;9.2504;0.002;0.0058;0.0122;-0.0027;-0.0021;0.0;20.04;-18.42;-32.6;247.75;-17.84;7.73;1003.21;57.771;51.89199;0.256755;209.0;NaN;82.91739;1.25;28.0;122.2;0 / 19;92005;2015-03-03 13:58:37:560
-1.2381;2.9761;9.1111;-1.2555;3.0032;9.2507;-3.0E-4;0.01;0.0183;-0.0016;-0.0021;-0.0011;18.45;-17.9;-32.42;243.72;-17.83;7.73;1003.2;56.414;51.89199;0.256755;209.0;NaN;83.00306;1.25;28.0;122.2;0 / 19;92505;2015-03-03 13:58:38:060
-1.2357;3.019;9.1563;-1.2542;3.0107;9.2484;0.0067;0.0098;0.0246;5.0E-4;-0.001;0.0011;17.22;-19.13;-33.62;240.14;-17.87;7.72;1003.21;49.949;51.89199;0.256755;209.0;NaN;82.91739;1.25;28.0;122.2;0 / 19;93005;2015-03-03 13:58:38:560
-1.2286;2.969;9.1349;-1.2485;3.0094;9.2496;0.0044;0.0049;-0.026;-6.0E-4;0.0011;0.0011;18.63;-18.42;-32.6;246.32;-17.87;7.71;1003.21;59.29;51.89199;0.256755;209.0;NaN;82.91739;1.25;28.0;122.2;0 / 19;93505;2015-03-03 13:58:39:060
-1.2857;2.969;9.123;-1.25;3.0005;9.2523;-0.0132;-0.0124;-0.0082;-0.0027;-0.0021;0.0;18.81;-18.25;-32.77;246.28;-17.85;7.7;1003.22;55.377;51.89199;0.256755;209.0;NaN;82.83273;1.25;28.0;122.2;0 / 19;94005;2015-03-03 13:58:39:560
-1.2238;2.9119;9.1254;-1.2565;3.006;9.2496;-0.005;0.025;0.0191;-0.0027;-0.001;-0.0011;17.05;-17.55;-33.45;242.67;-17.85;7.74;1003.21;51.169;51.89199;0.256755;209.0;NaN;82.91739;1.25;28.0;122.2;0 / 19;94506;2015-03-03 13:58:40:061
-1.2619;2.988;9.0587;-1.2524;3.0034;9.251;0.0036;0.0158;-0.0237;-0.0038;-0.0021;-0.0021;18.63;-18.42;-33.62;247.03;-17.82;7.71;1003.24;50.092;51.89199;0.256755;209.0;NaN;82.6624;1.25;28.0;122.2;0 / 19;95005;2015-03-03 13:58:40:560
-1.2357;2.969;9.223;-1.2495;3.01;9.2493;0.0136;0.0199;-0.0039;-0.0016;-0.0021;-0.0021;17.75;-19.3;-33.45;241.36;-17.85;7.71;1003.24;52.488;51.89199;0.256755;209.0;NaN;82.6624;1.25;28.0;122.2;0 / 19;95506;2015-03-03 13:58:41:061
-1.2286;2.969;9.1159;-1.242;3.0092;9.2505;0.0012;0.0111;-0.0039;-0.0016;0.0011;-0.0021;18.1;-18.6;-34.47;242.23;-17.86;7.63;1003.21;54.152;51.89199;0.256755;209.0;NaN;82.91739;1.25;28.0;122.2;0 / 19;96006;2015-03-03 13:58:41:561
-1.2428;3.0071;9.0302;-1.2543;3.0116;9.2481;-0.0145;0.0039;-0.0182;-0.0038;-0.0021;-0.0021;17.22;-19.13;-32.26;238.69;-17.88;7.68;1003.23;54.507;51.89199;0.256755;209.0;NaN;82.91739;1.25;28.0;122.2;0 / 19;96505;2015-03-03 13:58:42:060
-1.2381;2.9476;9.0945;-1.2544;3.014;9.2473;-0.0282;0.0318;0.0251;-0.0027;1.0E-4;-0.0011;17.58;-19.13;-33.28;241.49;-17.9;7.68;1003.22;67.568;51.89199;0.256755;209.0;NaN;82.83273;1.25;28.0;122.2;0 / 19;97005;2015-03-03 13:58:42:560
-1.2595;3.019;9.0849;-1.254;3.0084;9.2492;0.0125;0.0072;-0.0236;-0.0027;-0.0021;0.0;17.22;-18.07;-33.28;242.67;-17.85;7.75;1003.19;59.277;51.89199;0.256755;209.0;NaN;83.087715;1.25;28.0;122.2;0 / 19;97506;2015-03-03 13:58:43:061
-1.2143;3.0047;9.0849;-1.2555;3.0126;9.2476;0.0017;0.0178;0.0051;-6.0E-4;0.0011;-0.0021;18.81;-19.3;-31.74;242.52;-17.89;7.73;1003.19;61.267;51.89199;0.256755;209.0;NaN;83.087715;1.25;28.0;122.2;0 / 19;98006;2015-03-03 13:58:43:561
-1.2024;2.95;9.1849;-1.2523;3.0023;9.2514;0.0207;0.0027;0.0045;-0.0016;-0.001;-0.0021;17.75;-18.6;-33.45;241.36;-17.85;7.72;1003.2;59.572;51.89199;0.256755;209.0;NaN;83.00306;1.25;28.0;122.2;0 / 19;98505;2015-03-03 13:58:44:060
-1.2428;2.9809;9.0516;-1.2513;3.004;9.251;-0.0014;0.0158;0.0059;-0.0027;-0.0031;-0.0021;18.28;-17.37;-33.62;248.9;-17.84;7.71;1003.2;51.771;51.89199;0.256755;209.0;NaN;83.00306;1.25;28.0;122.2;0 / 19;99005;2015-03-03 13:58:44:560
-1.2738;2.9761;9.173;-1.2532;3.0084;9.2493;-0.0035;0.0187;0.026;5.0E-4;-0.001;-0.0011;18.45;-19.3;-32.08;240.6;-17.85;7.73;1003.19;52.074;51.89199;0.256755;209.0;NaN;83.087715;1.25;28.0;122.2;0 / 19;99505;2015-03-03 13:58:45:060
-1.2167;2.9642;9.1064;-1.2415;3.0081;9.251;0.0141;-0.0099;0.0204;-0.0027;-0.001;-0.0011;18.98;-18.42;-34.3;247.18;-17.86;7.64;1003.2;55.185;51.89199;0.256755;209.0;NaN;83.00306;1.25;28.0;122.2;0 / 19;100006;2015-03-03 13:58:45:561
-1.2143;2.9523;9.0802;-1.2524;3.0002;9.2521;-0.0206;0.0011;-1.0E-4;-6.0E-4;-0.0021;-0.0011;18.45;-17.2;-33.11;247.94;-17.81;7.67;1003.2;56.878;51.89199;0.256755;209.0;NaN;83.00306;1.25;28.0;122.2;0 / 19;100505;2015-03-03 13:58:46:060
-1.1857;3.0095;9.1944;-1.2567;3.0042;9.2502;0.0131;0.01;-0.02;-0.0027;-0.0031;-0.0011;18.28;-18.07;-33.28;244.54;-17.84;7.74;1003.2;57.238;51.89199;0.256755;209.0;NaN;83.00306;1.25;28.0;122.2;0 / 19;101006;2015-03-03 13:58:46:561
-1.2714;2.988;9.1254;-1.2529;3.0051;9.2504;-0.0062;0.0065;-0.0223;-0.0027;-0.0021;0.0;18.98;-18.42;-32.94;246.28;-17.85;7.7;1003.19;53.737;51.89199;0.256755;209.0;NaN;83.087715;1.25;28.0;122.2;0 / 19;101505;2015-03-03 13:58:47:060
-1.2595;2.988;9.1659;-1.2569;3.0074;9.2491;0.0073;0.0084;0.0087;-6.0E-4;0.0011;-0.0021;18.81;-18.25;-33.79;247.09;-17.85;7.74;1003.18;53.337;51.89199;0.256755;209.0;NaN;83.17237;1.25;28.0;122.2;0 / 19;102005;2015-03-03 13:58:47:560
-1.2333;2.9976;9.1302;-1.2561;3.0011;9.2513;0.0019;0.0057;-0.0248;-0.0027;-0.001;-0.0021;17.4;-19.65;-32.08;235.47;-17.82;7.71;1003.2;60.556;51.89199;0.256755;209.0;NaN;83.00306;1.25;28.0;122.2;0 / 19;102505;2015-03-03 13:58:48:060
-1.2095;3.0023;9.1397;-1.2568;3.0078;9.249;0.0137;0.0102;0.0107;-0.0016;1.0E-4;-0.0011;17.4;-18.95;-33.79;240.11;-17.87;7.76;1003.2;52.751;51.89199;0.256755;209.0;NaN;83.00306;1.25;28.0;122.2;0 / 19;103005;2015-03-03 13:58:48:560
-1.1881;3.0142;9.2658;-1.2457;2.9998;9.2531;-0.0081;0.0113;4.0E-4;-0.0038;-0.0053;-0.0021;17.75;-17.55;-32.77;244.52;-17.82;7.72;1003.2;68.7;51.89199;0.256755;209.0;NaN;83.00306;1.25;28.0;122.2;0 / 19;103505;2015-03-03 13:58:49:060
-1.2857;2.9952;9.0706;-1.2506;3.0055;9.2506;-8.0E-4;0.0075;-0.0245;-0.0038;-0.0053;-0.0011;18.28;-19.47;-33.28;241.34;-17.83;7.69;1003.19;56.435;51.89199;0.256755;209.0;NaN;83.087715;1.25;28.0;122.2;0 / 19;104005;2015-03-03 13:58:49:560
-1.2;2.9761;9.1611;-1.2539;3.0108;9.2484;-0.0169;0.0122;0.0092;-6.0E-4;0.0011;-0.0021;17.93;-18.77;-33.62;242.18;-17.87;7.71;1003.18;56.796;51.89199;0.256755;209.0;NaN;83.17237;1.25;28.0;122.2;0 / 19;104505;2015-03-03 13:58:50:060
-1.2833;2.9642;9.1682;-1.2479;2.9999;9.2528;-0.0112;-0.0011;0.0028;-0.0027;-0.001;0.0;17.93;-18.42;-32.94;244.6;-17.85;7.7;1003.19;63.651;51.89199;0.256755;209.0;NaN;83.087715;1.25;28.0;122.2;0 / 19;105006;2015-03-03 13:58:50:561
-1.2666;3.0214;9.1659;-1.2569;3.0128;9.2474;0.0116;0.048;-0.0142;-0.0016;-0.0031;-0.0021;19.86;-18.95;-34.13;245.63;-17.89;7.74;1003.2;60.088;51.89199;0.256755;209.0;NaN;83.00306;1.25;28.0;122.2;0 / 19;105505;2015-03-03 13:58:51:060
-1.3119;3.0642;9.2492;-1.2519;3.0165;9.2468;-0.0242;-0.0141;0.1194;0.0037;0.0043;-0.0011;19.69;-19.13;-32.94;244.88;-17.9;7.78;1003.22;56.391;51.89199;0.256755;209.0;NaN;82.83273;1.25;28.0;122.2;0 / 19;106005;2015-03-03 13:58:51:560
-1.2048;2.8619;9.0207;-1.2576;3.0126;9.2473;0.015;-0.0264;0.0037;0.0016;1.0E-4;-0.0011;19.69;-19.47;-33.28;244.87;-17.89;7.74;1003.24;52.941;51.89199;0.256755;209.0;NaN;82.6624;1.25;28.0;122.2;0 / 19;106507;2015-03-03 13:58:52:062
-1.2619;3.0023;9.123;-1.2549;3.0198;9.2453;-0.0054;0.0413;0.0355;-0.0048;-0.0031;-0.0032;17.93;-19.47;-33.28;241.58;-17.97;7.79;1003.23;66.426;51.89199;0.256755;209.0;NaN;82.74706;1.25;28.0;122.2;0 / 19;107005;2015-03-03 13:58:52:560
-1.2262;2.9785;9.0992;-1.2839;3.026;9.2393;0.0159;-0.0385;-0.0166;-6.0E-4;0.0011;-0.0021;17.58;-18.42;-32.6;244.8;-18.02;7.98;1003.22;61.603;51.89199;0.256755;209.0;NaN;82.83273;1.25;28.0;122.2;0 / 19;107505;2015-03-03 13:58:53:060
-1.25;2.9833;9.123;-1.2681;3.024;9.2422;0.0261;-0.0072;-0.0027;-0.0027;-0.0021;-0.0032;18.81;-18.95;-32.08;242.56;-17.96;7.87;1003.21;56.201;51.89199;0.256755;209.0;NaN;82.91739;1.25;28.0;122.2;0 / 19;108005;2015-03-03 13:58:53:560
-1.3024;3.0166;9.1706;-1.2638;3.0185;9.2446;-0.0053;0.0017;0.0032;-6.0E-4;1.0E-4;0.0;18.63;-18.77;-32.94;243.24;-17.89;7.76;1003.21;61.216;51.89199;0.256755;209.0;NaN;82.91739;1.25;28.0;122.2;0 / 19;108505;2015-03-03 13:58:54:060
-1.2452;2.9833;9.1349;-1.2508;2.999;9.2527;-0.0326;0.0367;-0.0382;-0.0027;-0.0021;-0.0032;18.28;-17.72;-33.28;244.54;-17.83;7.72;1003.21;60.672;51.89199;0.256755;209.0;NaN;82.91739;1.25;28.0;122.2;0 / 19;109005;2015-03-03 13:58:54:560
-1.2571;2.9785;9.0992;-1.2685;3.0049;9.2483;-0.0185;0.0021;0.0416;-0.0016;-0.001;-0.0021;19.69;-18.07;-33.62;248.58;-17.86;7.77;1003.21;62.458;51.89199;0.256755;209.0;NaN;82.91739;1.25;28.0;122.2;0 / 19;109505;2015-03-03 13:58:55:060
-1.2119;2.9571;9.2468;-1.2745;3.0053;9.2474;-0.0056;-0.0318;0.0562;-6.0E-4;-0.001;-0.0021;18.98;-19.13;-33.96;243.86;-17.86;7.84;1003.2;54.971;51.89199;0.256755;209.0;NaN;83.00306;1.25;28.0;122.2;0 / 19;110005;2015-03-03 13:58:55:560
-1.2428;3.0237;9.1159;-1.2684;3.0079;9.2474;0.0026;0.0312;0.0059;-0.0016;0.0011;-0.0021;19.33;-18.07;-32.94;246.17;-17.83;7.81;1003.21;51.135;51.89199;0.256755;209.0;NaN;82.91739;1.25;28.0;122.2;0 / 19;110505;2015-03-03 13:58:56:060
-1.2262;2.8976;9.0254;-1.266;3.0087;9.2474;0.0148;-0.0098;-0.0327;0.0016;1.0E-4;0.0;17.93;-18.77;-31.91;240.61;-17.89;7.82;1003.19;53.757;51.89199;0.256755;209.0;NaN;83.087715;1.25;28.0;122.2;0 / 19;111006;2015-03-03 13:58:56:561
-0.6954;3.3261;8.9064;-1.1353;3.0197;9.2608;-0.3618;0.5866;-0.1753;-0.0914;-0.1975;-0.125;17.05;-17.9;-33.11;242.77;-17.83;7.57;1003.19;55.29;51.89199;0.256755;209.0;NaN;83.087715;1.25;28.0;122.2;0 / 19;111505;2015-03-03 13:58:57:060
-1.1881;2.9999;9.2159;-1.0985;2.952;9.2871;0.2371;-0.3688;4.0E-4;0.0454;0.0973;0.0289;16.7;-17.2;-33.79;247.48;-17.68;6.8;1003.19;64.921;51.89199;0.256755;209.0;NaN;83.087715;1.25;28.0;122.2;0 / 19;112005;2015-03-03 13:58:57:560
-0.9001;2.7809;9.1349;-0.9939;2.8732;9.3235;0.1097;-0.0092;-0.034;0.0304;0.0471;-0.0224;17.22;-16.67;-34.3;246.36;-17.04;6.09;1003.18;65.869;51.89199;0.256755;209.0;NaN;83.17237;1.25;28.0;122.2;0 / 19;112505;2015-03-03 13:58:58:060
-1.1619;2.988;9.1492;-1.2465;2.983;9.2584;-0.0211;-0.0264;0.0675;0.0058;0.0129;-0.0021;17.58;-18.07;-32.94;244.22;-17.49;7.11;1003.18;63.167;51.89199;0.256755;209.0;NaN;83.17237;1.25;28.0;122.2;0 / 19;113006;2015-03-03 13:58:58:561
-1.1262;2.9619;9.2325;-1.0537;2.9539;9.2916;0.0233;-0.0067;-0.0266;-6.0E-4;-0.0256;0.016;18.28;-18.42;-34.3;245.43;-17.59;6.89;1003.17;65.841;51.89199;0.256755;209.0;NaN;83.25804;1.25;28.0;122.2;0 / 19;113505;2015-03-03 13:58:59:060
-1.1381;2.9357;9.1516;-1.1428;2.946;9.2836;0.0782;-0.0147;0.0826;0.0112;0.0289;-0.0064;17.22;-17.37;-34.3;247.09;-17.48;6.6;1003.18;55.365;51.89199;0.256755;209.0;NaN;83.17237;1.25;28.0;122.2;0 / 19;114005;2015-03-03 13:58:59:560
-1.05;3.0452;9.2635;-1.1415;2.9463;9.2837;0.0982;0.0213;0.035;-6.0E-4;0.0278;0.0075;18.98;-17.72;-33.62;246.58;-17.46;7.11;1003.18;54.876;51.89199;0.256755;209.0;NaN;83.17237;1.25;28.0;122.2;0 / 19;114505;2015-03-03 13:59:00:060
-1.0762;3.1713;9.2301;-1.1155;2.9233;9.2941;0.0158;0.2124;-0.0356;0.0058;0.0022;-0.0043;17.4;-18.25;-33.45;241.96;-17.28;7.01;1003.18;59.193;51.89199;0.256755;209.0;NaN;83.17237;1.25;28.0;122.2;0 / 19;115006;2015-03-03 13:59:00:561
-1.319;2.9047;9.2301;-1.1924;2.9302;9.2824;-0.0162;-0.0256;0.0113;0.0069;-0.0095;-0.0107;17.75;-18.25;-33.79;244.88;-17.48;7.27;1003.17;57.375;51.89199;0.256755;209.0;NaN;83.25804;1.25;28.0;122.2;0 / 19;115507;2015-03-03 13:59:01:062
-0.9739;2.8333;9.1373;-1.2081;2.9373;9.2781;0.0549;-0.0565;-0.0147;-0.0038;-0.0085;-0.0075;18.63;-16.67;-31.91;247.77;-17.32;7.17;1003.16;65.346;51.89199;0.256755;209.0;NaN;83.3427;1.25;28.0;122.2;0 / 19;116005;2015-03-03 13:59:01:560
-1.2428;2.8952;9.1111;-1.2419;2.9375;9.2736;-0.0323;0.0027;-0.0081;0.0026;0.0076;0.0;17.93;-17.02;-32.94;247.03;-17.39;7.5;1003.18;58.16;51.89199;0.256755;209.0;NaN;83.17237;1.25;28.0;122.2;0 / 19;116505;2015-03-03 13:59:02:060
-1.2214;2.9166;9.1492;-1.2571;2.9468;9.2686;-8.0E-4;-0.0018;-0.0501;-0.0016;1.0E-4;-0.0011;18.63;-18.42;-32.94;245.43;-17.47;7.7;1003.18;50.804;51.89199;0.256755;209.0;NaN;83.17237;1.25;28.0;122.2;0 / 19;117005;2015-03-03 13:59:02:560
-1.2428;2.919;9.1468;-1.261;2.939;9.2705;4.0E-4;0.0168;0.0483;-0.0016;-0.001;-0.0032;18.81;-18.25;-34.47;246.11;-17.44;7.75;1003.2;54.339;51.89199;0.256755;209.0;NaN;83.00306;1.25;28.0;122.2;0 / 19;117505;2015-03-03 13:59:03:060
-1.25;2.9071;9.104;-1.2551;2.9451;9.2694;-0.0014;0.009;-0.0132;-0.0016;0.0022;-0.0021;20.39;-18.42;-32.6;246.99;-17.48;7.69;1003.21;55.815;51.89199;0.256755;209.0;NaN;82.91739;1.25;28.0;122.2;0 / 19;118011;2015-03-03 13:59:03:566
-1.2428;2.9095;9.1254;-1.2605;2.9489;9.2674;-0.0153;0.0358;-0.0066;-0.0038;-0.0031;-0.0021;18.98;-17.72;-32.94;245.46;-17.5;7.75;1003.2;53.655;51.89199;0.256755;209.0;NaN;83.00306;1.25;28.0;122.2;0 / 19;118505;2015-03-03 13:59:04:060
-1.2452;2.938;9.1706;-1.2588;2.9555;9.2656;-0.01;0.003;0.0012;-0.0016;-0.001;0.0;18.63;-17.72;-31.91;244.79;-17.54;7.72;1003.21;49.047;51.89199;0.256755;209.0;NaN;82.91739;1.25;28.0;122.2;0 / 19;119005;2015-03-03 13:59:04:560
-1.2547;2.9357;9.1778;-1.2663;2.9522;9.2656;-9.0E-4;-3.0E-4;0.0036;-0.0016;-0.001;0.0;19.33;-17.72;-33.28;245.48;-17.52;7.78;1003.22;54.099;51.89199;0.256755;209.0;NaN;82.83273;1.25;28.0;122.2;0 / 19;119505;2015-03-03 13:59:05:060
-1.2428;2.919;9.1349;-1.2652;2.9527;9.2656;-0.0129;-2.0E-4;-0.0174;5.0E-4;-0.001;0.0011;19.69;-17.72;-31.91;246.28;-17.51;7.73;1003.22;53.466;51.89199;0.256755;209.0;NaN;82.83273;1.25;28.0;122.2;0 / 19;120005;2015-03-03 13:59:05:560
-1.2309;2.9809;9.2111;-1.2614;2.95;9.267;-0.0027;0.0177;-0.0193;-0.0016;-0.0042;-0.0032;17.58;-17.37;-33.62;247.98;-17.49;7.76;1003.24;54.356;51.89199;0.256755;209.0;NaN;82.6624;1.25;28.0;122.2;0 / 19;120505;2015-03-03 13:59:06:060
-1.2309;2.8571;9.1444;-1.2566;2.9436;9.2697;5.0E-4;0.002;-0.0148;-0.0016;-0.0021;-0.0021;18.81;-18.95;-33.45;242.39;-17.48;7.7;1003.22;49.964;51.89199;0.256755;209.0;NaN;82.83273;1.25;28.0;122.2;0 / 19;121005;2015-03-03 13:59:06:560
-1.2547;2.9047;9.1492;-1.2652;2.9472;9.2673;-0.0027;0.009;-0.0448;-6.0E-4;1.0E-4;-0.0032;19.51;-17.9;-33.11;246.96;-17.49;7.77;1003.24;53.406;51.89199;0.256755;209.0;NaN;82.6624;1.25;28.0;122.2;0 / 19;121504;2015-03-03 13:59:07:059
-1.2405;2.9119;9.1397;-1.2625;2.9545;9.2654;-0.0026;-0.0046;0.0341;0.0011;1.0E-4;1.0E-4;19.51;-16.15;-31.4;251.62;-17.53;7.76;1003.23;58.27;51.89199;0.256755;209.0;NaN;82.74706;1.25;28.0;122.2;0 / 19;122006;2015-03-03 13:59:07:561
-1.3119;2.8547;9.1587;-1.2628;2.9577;9.2643;0.0017;-0.0205;0.0053;0.0022;0.0011;1.0E-4;18.45;-18.6;-32.08;239.94;-17.55;7.76;1003.23;53.663;51.89199;0.256755;209.0;NaN;82.74706;1.25;28.0;122.2;0 / 19;122505;2015-03-03 13:59:08:060
-1.2143;2.9023;9.1016;-1.2621;2.9513;9.2665;0.0155;-0.0032;-0.0067;0.0022;-0.001;0.0012;18.1;-18.95;-33.45;240.61;-17.54;7.77;1003.23;56.081;51.89199;0.256755;209.0;NaN;82.74706;1.25;28.0;122.2;0 / 19;123015;2015-03-03 13:59:08:570
-1.2643;2.9;9.0111;-1.2757;2.9588;9.2622;-0.0223;-0.0201;-0.0339;-0.0011;1.0E-4;-9.0E-4;18.81;-16.85;-33.45;248.77;-17.56;7.84;1003.24;55.412;51.89199;0.256755;209.0;NaN;82.6624;1.25;28.0;122.2;0 / 19;123505;2015-03-03 13:59:09:060
-1.2238;2.9166;9.1682;-1.278;2.9601;9.2615;0.0151;0.0164;0.0046;-0.0011;-0.001;-0.002;18.81;-17.2;-32.42;247.93;-17.57;7.86;1003.23;54.273;51.89199;0.256755;209.0;NaN;82.74706;1.25;28.0;122.2;0 / 19;124005;2015-03-03 13:59:09:560
-1.2571;2.9238;9.1801;-1.2997;2.9608;9.2582;0.0154;-0.0106;0.0197;-0.0011;-0.001;0.0012;17.22;-17.72;-33.62;242.64;-17.59;7.97;1003.22;63.957;51.89199;0.256755;209.0;NaN;82.83273;1.25;28.0;122.2;0 / 19;124506;2015-03-03 13:59:10:061
-1.2333;2.9285;9.0968;-1.2914;2.9598;9.2597;0.0158;0.0376;0.0117;0.0;1.0E-4;0.0012;18.63;-18.07;-32.26;244.58;-17.51;7.97;1003.2;50.901;51.89199;0.256755;209.0;NaN;83.00306;1.25;28.0;122.2;0 / 19;125005;2015-03-03 13:59:10:560
-1.2214;2.969;9.1659;-1.2806;2.9622;9.2604;0.0166;0.0314;-0.0751;-0.0021;0.0011;1.0E-4;18.28;-18.07;-33.28;243.81;-17.57;7.87;1003.2;48.129;51.89199;0.256755;209.0;NaN;83.00306;1.25;28.0;122.2;0 / 19;125505;2015-03-03 13:59:11:060
-1.15;2.9047;9.4515;-1.2732;2.9607;9.2619;0.0055;0.0085;0.0329;-0.0032;-0.0031;-9.0E-4;20.56;-17.55;-33.79;249.25;-17.57;7.83;1003.2;53.988;51.89199;0.256755;209.0;NaN;83.00306;1.25;28.0;122.2;0 / 19;126005;2015-03-03 13:59:11:560
-1.2286;2.9333;9.1444;-1.2731;2.9484;9.2659;0.0025;0.0092;0.0066;0.0;1.0E-4;0.0012;18.45;-17.55;-32.42;242.89;-17.5;7.82;1003.19;57.91;51.89199;0.256755;209.0;NaN;83.087715;1.25;28.0;122.2;0 / 19;126506;2015-03-03 13:59:12:061
-1.2476;2.8881;9.154;-1.2538;2.9501;9.268;0.0018;0.0033;-0.0071;0.0011;-0.001;-9.0E-4;17.58;-16.67;-32.94;247.06;-17.48;7.76;1003.2;61.96;51.89199;0.256755;209.0;NaN;83.00306;1.25;28.0;122.2;0 / 19;127012;2015-03-03 13:59:12:567
-1.2714;2.8928;9.123;-1.2805;2.9583;9.2617;-7.0E-4;0.0102;0.0094;-0.0011;-0.0031;0.0012;17.93;-16.32;-32.6;250.78;-17.55;7.78;1003.2;61.145;51.89199;0.256755;209.0;NaN;83.00306;1.25;28.0;122.2;0 / 19;127505;2015-03-03 13:59:13:060
-1.2238;2.9642;9.1897;-1.2695;2.9515;9.2654;-0.0126;0.0105;0.0024;-0.0011;-0.001;1.0E-4;18.98;-17.72;-32.26;244.7;-17.52;7.8;1003.22;53.98;51.89199;0.256755;209.0;NaN;82.83273;1.25;28.0;122.2;0 / 19;128006;2015-03-03 13:59:13:561
-1.2595;2.9666;9.0564;-1.2806;2.9658;9.2593;-0.0562;0.0216;-0.0245;0.0011;0.0043;1.0E-4;19.16;-16.15;-34.13;253.09;-17.56;7.86;1003.23;68.128;51.89199;0.256755;209.0;NaN;82.74706;1.25;28.0;122.2;0 / 19;128505;2015-03-03 13:59:14:060
-1.2785;2.9023;9.3872;-1.2586;2.9624;9.2634;0.0257;-0.0059;0.0263;0.0064;0.0022;-9.0E-4;18.98;-17.37;-33.28;248.88;-17.58;7.74;1003.24;57.09;51.89199;0.256755;209.0;NaN;82.6624;1.25;28.0;122.2;0 / 19;129005;2015-03-03 13:59:14:560
-1.3309;2.8881;8.766;-1.2733;2.963;9.2612;-0.0258;0.0152;0.0193;-0.0011;-0.0053;-9.0E-4;18.28;-17.37;-32.94;247.28;-17.58;7.8;1003.25;65.553;51.89199;0.256755;209.0;NaN;82.577736;1.25;28.0;122.2;0 / 19;129505;2015-03-03 13:59:15:060
-1.2476;2.8833;9.1873;-1.2291;2.9437;9.2733;-0.0171;-0.0114;-0.0028;-0.0043;-0.0202;-9.0E-4;18.63;-18.07;-32.94;245.51;-17.47;7.57;1003.25;65.331;51.89199;0.256755;209.0;NaN;82.577736;1.25;28.0;122.2;0 / 19;130005;2015-03-03 13:59:15:560
-1.2405;2.9214;9.1563;-1.2564;2.9636;9.2633;-0.018;0.0155;0.0118;-0.0011;0.0011;-0.002;18.63;-17.72;-32.94;245.68;-17.59;7.72;1003.25;55.092;51.89199;0.256755;209.0;NaN;82.577736;1.25;28.0;122.2;0 / 19;130505;2015-03-03 13:59:16:060
-1.2595;2.9404;9.1897;-1.2829;2.9746;9.2561;-0.0056;0.0072;0.0195;-0.0021;-0.0042;-0.002;18.63;-18.07;-33.96;246.53;-17.66;7.89;1003.26;67.731;51.89199;0.256755;209.0;NaN;82.492065;1.25;28.0;122.2;0 / 19;131011;2015-03-03 13:59:16:566
-1.2809;2.9095;9.1587;-1.2878;2.9784;9.2543;0.0064;0.0298;-0.0026;0.0011;-0.001;1.0E-4;18.81;-17.9;-32.77;245.75;-17.68;7.92;1003.26;56.13;51.89199;0.256755;209.0;NaN;82.492065;1.25;28.0;122.2;0 / 19;131505;2015-03-03 13:59:17:060
-1.4856;2.9642;8.835;-1.2206;2.9388;9.276;-0.0164;0.0045;-0.0359;0.0032;0.0075;1.0E-4;18.28;-19.13;-34.64;242.37;-17.69;7.89;1003.24;53.451;51.89199;0.256755;209.0;NaN;82.6624;1.25;28.0;122.2;0 / 19;132005;2015-03-03 13:59:17:560
-1.1929;2.9476;9.2016;-1.2286;2.9382;9.2751;-0.0013;0.0093;0.0144;0.0;0.0033;0.0012;19.33;-19.13;-33.28;242.44;-17.45;7.55;1003.25;60.326;51.89199;0.256755;209.0;NaN;82.577736;1.25;28.0;122.2;0 / 19;132505;2015-03-03 13:59:18:060
-1.269;2.8976;9.0468;-1.2725;2.967;9.26;-0.0236;-0.0025;-0.0654;0.0;0.0011;0.0012;18.45;-17.55;-33.45;243.88;-17.53;7.67;1003.26;54.592;51.89199;0.256755;209.0;NaN;82.492065;1.25;28.0;122.2;0 / 19;133005;2015-03-03 13:59:18:560
-1.2428;2.9619;9.1064;-1.2808;2.9669;9.2589;-0.008;0.0304;0.1322;0.0022;0.0022;-9.0E-4;18.45;-18.6;-33.45;240.78;-17.64;7.85;1003.26;61.076;51.89199;0.256755;209.0;NaN;82.492065;1.25;28.0;122.2;0 / 19;133506;2015-03-03 13:59:19:061
-1.2357;2.919;9.1397;-1.2849;2.975;9.2558;0.0252;-0.0101;-0.0065;0.0011;0.0011;-9.0E-4;19.51;-18.6;-33.11;244.31;-17.67;7.91;1003.25;63.478;51.89199;0.256755;209.0;NaN;82.577736;1.25;28.0;122.2;0 / 19;134005;2015-03-03 13:59:19:560
-1.2286;2.9738;9.2087;-1.2803;2.9718;9.2574;-0.0073;0.0169;0.0037;0.0011;0.0011;-9.0E-4;18.1;-17.55;-33.79;244.76;-17.62;7.86;1003.24;61.566;51.89199;0.256755;209.0;NaN;82.6624;1.25;28.0;122.2;0 / 19;134505;2015-03-03 13:59:20:060
-1.2738;2.9428;9.1183;-1.2805;2.9783;9.2553;0.0117;-0.0134;-0.0488;-0.0011;-0.001;0.0012;17.93;-18.77;-31.91;240.04;-17.65;7.89;1003.24;55.245;51.89199;0.256755;209.0;NaN;82.6624;1.25;28.0;122.2;0 / 19;135008;2015-03-03 13:59:20:563
-1.269;2.9404;9.1611;-1.2815;2.9721;9.2572;0.0059;0.0065;0.0301;-0.0011;1.0E-4;-9.0E-4;18.1;-16.85;-32.77;247.43;-17.67;7.89;1003.24;62.503;51.89199;0.256755;209.0;NaN;82.6624;1.25;28.0;122.2;0 / 19;135505;2015-03-03 13:59:21:060
-1.2857;2.9309;9.1183;-1.2914;2.9757;9.2546;0.0089;0.0136;0.0349;0.0;0.0011;0.0012;17.75;-16.85;-32.77;247.37;-17.64;7.89;1003.24;55.407;51.89199;0.256755;209.0;NaN;82.6624;1.25;28.0;122.2;0 / 19;136006;2015-03-03 13:59:21:561
-1.2666;2.9523;9.154;-1.2877;2.9794;9.2539;-0.005;0.0109;0.0066;-0.0011;1.0E-4;0.0012;19.16;-18.95;-32.77;242.61;-17.65;7.9;1003.24;52.156;51.89199;0.256755;209.0;NaN;82.6624;1.25;28.0;122.2;0 / 19;136505;2015-03-03 13:59:22:060
-1.2286;2.938;9.1444;-1.2917;2.9771;9.2541;-0.0052;-0.017;-0.0156;-0.0011;1.0E-4;0.0012;18.45;-16.15;-32.77;251.07;-17.7;7.95;1003.25;53.274;51.89199;0.256755;209.0;NaN;82.577736;1.25;28.0;122.2;0 / 19;137005;2015-03-03 13:59:22:560
-1.2881;2.9571;9.1444;-1.2866;2.9702;9.257;-0.0087;0.0235;-0.006;0.0011;0.0033;-9.0E-4;17.58;-18.77;-32.6;240.67;-17.61;7.9;1003.24;55.793;51.89199;0.256755;209.0;NaN;82.6624;1.25;28.0;122.2;0 / 19;137505;2015-03-03 13:59:23:060
-1.2762;2.9523;9.1278;-1.2916;2.9708;9.2561;-0.0043;0.0033;0.0044;-9.0E-4;-0.0017;-1.0E-4;18.63;-17.37;-32.6;248.89;-17.63;7.94;1003.24;57.865;51.89199;0.256755;209.0;NaN;82.6624;1.25;28.0;122.2;0 / 19;138006;2015-03-03 13:59:23:561
-1.2381;2.9261;9.1278;-1.2843;2.9806;9.254;0.0184;-0.0127;-0.0201;2.0E-4;-0.0017;-0.0022;19.51;-17.9;-32.08;246.55;-17.69;7.93;1003.24;55.519;51.89199;0.256755;209.0;NaN;82.6624;1.25;28.0;122.2;0 / 19;138505;2015-03-03 13:59:24:060
-1.3119;2.9166;9.0611;-1.2801;2.9765;9.2559;-0.0226;-0.0125;0.0085;2.0E-4;0.0015;-1.0E-4;19.33;-18.42;-31.91;244.95;-17.65;7.87;1003.22;67.481;51.89199;0.256755;209.0;NaN;82.83273;1.25;28.0;122.2;0 / 19;139008;2015-03-03 13:59:24:563
-1.2857;2.9595;9.1159;-1.2854;2.9688;9.2577;-0.016;0.0047;-0.0218;2.0E-4;5.0E-4;0.001;17.93;-17.72;-32.6;243.92;-17.63;7.89;1003.22;54.627;51.89199;0.256755;209.0;NaN;82.83273;1.25;28.0;122.2;0 / 19;139505;2015-03-03 13:59:25:060
-1.2785;2.9214;9.0754;-1.2848;2.9789;9.2545;0.0113;-0.0037;-0.0117;2.0E-4;-6.0E-4;-1.0E-4;18.63;-18.42;-32.6;245.7;-17.66;7.92;1003.22;56.283;51.89199;0.256755;209.0;NaN;82.83273;1.25;28.0;122.2;0 / 19;140005;2015-03-03 13:59:25:560
-1.2571;2.9428;9.1278;-1.2851;2.9676;9.2581;-0.0132;-0.0283;-9.0E-4;0.0013;-6.0E-4;-0.0012;18.28;-18.42;-33.28;244.04;-17.68;7.89;1003.22;58.127;51.89199;0.256755;209.0;NaN;82.83273;1.25;28.0;122.2;0 / 19;140505;2015-03-03 13:59:26:060
-1.2833;2.9476;9.0754;-1.2794;2.9703;9.258;0.007;0.0197;-0.0156;0.0023;5.0E-4;-1.0E-4;19.86;-16.5;-33.45;253.43;-17.58;7.87;1003.22;58.494;51.89199;0.256755;209.0;NaN;82.83273;1.25;28.0;122.2;0 / 19;141005;2015-03-03 13:59:26:560
-1.2571;2.9333;9.1183;-1.2829;2.9761;9.2557;0.0048;2.0E-4;0.0017;2.0E-4;5.0E-4;-1.0E-4;17.93;-18.07;-33.96;244.85;-17.67;7.89;1003.22;53.572;51.89199;0.256755;209.0;NaN;82.83273;1.25;28.0;122.2;0 / 19;141505;2015-03-03 13:59:27:060
-1.2262;2.9142;9.1373;-1.2855;2.9711;9.2569;-0.0023;0.002;0.0285;-9.0E-4;-6.0E-4;-0.0012;17.58;-19.47;-33.96;241.53;-17.67;7.92;1003.22;54.207;51.89199;0.256755;209.0;NaN;82.83273;1.25;28.0;122.2;0 / 19;142005;2015-03-03 13:59:27:560
-1.2809;2.9047;9.0516;-1.2798;2.9757;9.2562;-0.0093;0.0017;-0.0055;-0.003;-0.0027;-0.0022;19.16;-18.25;-32.77;245.68;-17.63;7.85;1003.22;53.662;51.89199;0.256755;209.0;NaN;82.83273;1.25;28.0;122.2;0 / 19;142506;2015-03-03 13:59:28:061
-1.2547;2.9261;9.0564;-1.2843;2.9793;9.2544;-0.0101;0.0064;-0.0142;-9.0E-4;-6.0E-4;-0.0022;19.69;-18.07;-33.62;248.11;-17.68;7.87;1003.22;52.358;51.89199;0.256755;209.0;NaN;82.83273;1.25;28.0;122.2;0 / 19;143007;2015-03-03 13:59:28:562
-1.2476;2.9047;9.223;-1.2793;2.9705;9.258;0.0026;-0.0217;0.0168;-9.0E-4;5.0E-4;-0.0012;19.16;-16.15;-32.77;252.44;-17.68;7.88;1003.23;60.585;51.89199;0.256755;209.0;NaN;82.74706;1.25;28.0;122.2;0 / 19;143506;2015-03-03 13:59:29:061
-1.269;2.9238;9.2087;-1.2784;2.9697;9.2583;0.0015;0.0212;0.0042;2.0E-4;5.0E-4;-1.0E-4;18.81;-17.2;-33.45;248.85;-17.6;7.87;1003.21;53.046;51.89199;0.256755;209.0;NaN;82.91739;1.25;28.0;122.2;0 / 19;144006;2015-03-03 13:59:29:561
-1.2714;2.8881;9.104;-1.2902;2.9726;9.2558;0.0131;-0.0068;-0.0116;0.0013;0.0015;-1.0E-4;18.63;-18.42;-33.28;245.68;-17.66;7.96;1003.2;50.218;51.89199;0.256755;209.0;NaN;83.00306;1.25;28.0;122.2;0 / 19;144505;2015-03-03 13:59:30:060
-1.2214;2.9952;9.2254;-1.272;2.9734;9.258;0.0032;0.0014;0.016;0.0013;-6.0E-4;0.001;18.98;-19.13;-32.26;241.87;-17.62;7.85;1003.2;53.953;51.89199;0.256755;209.0;NaN;83.00306;1.25;28.0;122.2;0 / 19;145006;2015-03-03 13:59:30:561
-1.2952;2.9142;9.1278;-1.2794;2.9678;9.2588;-0.0246;-0.0055;0.035;-9.0E-4;-0.0027;-1.0E-4;19.33;-18.07;-32.26;244.93;-17.64;7.84;1003.2;54.733;51.89199;0.256755;209.0;NaN;83.00306;1.25;28.0;122.2;5 / 19;145505;2015-03-03 13:59:31:060
-1.2785;2.869;9.0992;-1.2803;2.9781;9.2554;-0.0012;0.0219;-0.062;-9.0E-4;-0.0017;-1.0E-4;18.28;-17.37;-32.26;246.49;-17.64;7.88;1003.21;53.828;51.89199;0.256755;209.0;NaN;82.91739;1.25;28.0;122.2;5 / 19;146005;2015-03-03 13:59:31:560
-1.3095;2.9357;9.1111;-1.2852;2.981;9.2538;-0.0263;-0.0155;0.0048;0.0023;-6.0E-4;-1.0E-4;18.63;-17.72;-32.26;245.04;-17.71;7.9;1003.21;54.562;51.89199;0.256755;209.0;NaN;82.91739;1.25;28.0;122.2;7 / 19;146505;2015-03-03 13:59:32:060
-1.2714;2.9738;9.2206;-1.2916;2.9709;9.2561;0.0046;0.0028;0.006;0.0013;-0.0017;-0.0033;17.75;-17.9;-33.45;243.96;-17.65;7.93;1003.21;56.826;51.89199;0.256755;209.0;NaN;82.91739;1.25;28.0;122.2;7 / 19;147008;2015-03-03 13:59:32:563
-1.2714;2.9452;9.0564;-1.2822;2.9734;9.2566;-4.0E-4;-6.0E-4;-0.0062;0.0023;5.0E-4;-1.0E-4;19.86;-18.6;-33.45;244.22;-17.62;7.88;1003.21;59.888;51.89199;0.256755;209.0;NaN;82.91739;1.25;28.0;122.2;7 / 19;147506;2015-03-03 13:59:33:061
-1.2666;2.9;9.0492;-1.2875;2.9739;9.2557;0.0;6.0E-4;-0.0196;2.0E-4;5.0E-4;-1.0E-4;19.69;-16.32;-30.89;251.83;-17.65;7.89;1003.2;62.116;51.89199;0.256755;209.0;NaN;83.00306;1.25;28.0;122.2;7 / 19;148005;2015-03-03 13:59:33:560
-1.2762;2.9261;9.1278;-1.2805;2.9704;9.2578;-0.0022;-0.007;0.0257;0.0013;-6.0E-4;0.001;19.33;-18.07;-33.62;246.49;-17.65;7.91;1003.22;54.55;51.89199;0.256755;209.0;NaN;82.83273;1.25;28.0;122.2;9 / 19;148505;2015-03-03 13:59:34:060
-1.2333;2.969;9.1183;-1.2841;2.9711;9.2571;0.0169;0.0117;-0.0196;-0.002;5.0E-4;-1.0E-4;19.33;-17.72;-32.26;244.89;-17.64;7.9;1003.2;55.035;51.89199;0.256755;209.0;NaN;83.00306;1.25;28.0;122.2;9 / 19;149005;2015-03-03 13:59:34:560
-1.2881;2.969;9.1397;-1.2876;2.9745;9.2555;0.007;0.0115;0.0341;0.0023;0.0015;-0.0012;18.81;-18.6;-31.74;241.89;-17.66;7.92;1003.2;55.401;51.89199;0.256755;209.0;NaN;83.00306;1.25;28.0;122.2;9 / 19;149505;2015-03-03 13:59:35:060
-1.2714;2.9166;9.0992;-1.2788;2.9727;9.2573;-0.0111;-0.0275;-0.0196;-9.0E-4;-6.0E-4;-0.0012;20.21;-18.6;-33.45;244.35;-17.67;7.85;1003.22;56.818;51.89199;0.256755;209.0;NaN;82.83273;1.25;28.0;122.2;9 / 19;150005;2015-03-03 13:59:35:560
-1.25;2.9166;9.0945;-1.2826;2.9608;9.2606;0.0152;-0.0127;-0.0104;-0.002;-6.0E-4;-0.0012;19.51;-16.85;-31.74;249.37;-17.58;7.9;1003.22;59.115;51.89199;0.256755;209.0;NaN;82.83273;1.25;28.0;122.2;9 / 19;150508;2015-03-03 13:59:36:063
-1.2024;2.9;9.154;-1.2836;2.972;9.2569;0.0348;-0.0471;-0.0071;-9.0E-4;5.0E-4;-0.0012;18.28;-17.37;-34.64;249.3;-17.69;7.95;1003.23;56.729;51.89199;0.256755;209.0;NaN;82.74706;1.25;28.0;122.2;9 / 19;151004;2015-03-03 13:59:36:559
-1.3166;2.969;9.1706;-1.29;2.9713;9.2562;-0.0093;0.0048;-0.0114;0.0023;-6.0E-4;-1.0E-4;20.04;-19.13;-34.3;244.94;-17.63;7.91;1003.2;60.986;51.89199;0.256755;209.0;NaN;83.00306;1.25;28.0;122.2;9 / 19;151506;2015-03-03 13:59:37:061
-1.269;2.9428;9.1349;-1.29;2.9673;9.2575;0.0124;-0.0184;0.0186;2.0E-4;-0.0017;-1.0E-4;18.1;-17.55;-33.45;243.96;-17.65;7.91;1003.2;62.556;51.89199;0.256755;209.0;NaN;83.00306;1.25;28.0;122.2;9 / 19;152005;2015-03-03 13:59:37:560
-1.3119;2.9666;9.0921;-1.2849;2.9733;9.2563;-0.0137;0.0365;0.0024;2.0E-4;5.0E-4;0.001;18.63;-18.77;-34.3;243.25;-17.6;7.88;1003.21;59.311;51.89199;0.256755;209.0;NaN;82.91739;1.25;28.0;122.2;9 / 19;152505;2015-03-03 13:59:38:060
-1.2785;2.9571;9.1682;-1.28;2.9704;9.2579;0.0024;0.015;-0.0054;-9.0E-4;0.0015;-0.0012;18.98;-18.42;-33.28;245.64;-17.62;7.87;1003.21;60.158;51.89199;0.256755;209.0;NaN;82.91739;1.25;28.0;122.2;9 / 19;153005;2015-03-03 13:59:38:560
-1.2976;2.9428;9.1206;-1.274;2.9775;9.2564;-0.0195;-0.0033;-0.0101;0.0013;-6.0E-4;-0.0012;19.33;-18.07;-32.6;245.76;-17.66;7.84;1003.2;54.247;51.89199;0.256755;209.0;NaN;83.00306;1.25;28.0;122.2;9 / 19;153505;2015-03-03 13:59:39:060
-1.2762;2.9238;9.1016;-1.2819;2.9743;9.2564;0.0016;-0.0294;-0.0147;0.0034;0.0037;0.001;19.51;-19.3;-32.42;243.63;-17.68;7.89;1003.21;59.114;51.89199;0.256755;209.0;NaN;82.91739;1.25;28.0;122.2;9 / 19;154005;2015-03-03 13:59:39:560
-1.3;2.9523;9.223;-1.2838;2.9757;9.2557;0.0013;0.0135;1.0E-4;2.0E-4;-0.0038;0.001;19.51;-17.55;-31.74;246.47;-17.65;7.92;1003.22;56.647;51.89199;0.256755;209.0;NaN;82.83273;1.25;28.0;122.2;9 / 19;154505;2015-03-03 13:59:40:060
-1.3214;2.9333;9.173;-1.2828;2.97;9.2576;-0.0176;0.0147;0.0127;2.0E-4;-0.0027;0.001;18.45;-18.6;-32.77;240.77;-17.65;7.87;1003.23;54.921;51.89199;0.256755;209.0;NaN;82.74706;1.25;28.0;122.2;9 / 19;155004;2015-03-03 13:59:40:559
-1.2738;2.9047;9.0445;-1.2897;2.9711;9.2563;-0.0037;-0.0192;-0.0237;0.0023;0.0069;-0.0012;18.45;-18.95;-32.08;239.93;-17.61;7.91;1003.22;68.447;51.89199;0.256755;209.0;NaN;82.83273;1.25;28.0;122.2;9 / 19;155506;2015-03-03 13:59:41:061
-1.2595;2.9547;8.9064;-1.2841;2.9703;9.2574;0.0052;-0.0206;0.0106;-0.002;-0.0091;-0.0012;18.81;-18.6;-33.79;243.28;-17.64;7.93;1003.21;55.462;51.89199;0.256755;209.0;NaN;82.91739;1.25;28.0;122.2;9 / 19;156005;2015-03-03 13:59:41:560
-1.2524;2.938;9.1421;-1.2815;2.9679;9.2585;-0.0028;-0.0339;-0.0066;2.0E-4;0.0026;0.001;18.28;-15.97;-32.94;250.94;-17.63;7.87;1003.21;58.982;51.89199;0.256755;209.0;NaN;82.91739;1.25;28.0;122.2;9 / 19;156506;2015-03-03 13:59:42:061
-1.2928;2.938;9.0492;-1.2818;2.964;9.2597;-0.0122;0.0097;-0.0117;-9.0E-4;5.0E-4;-0.0012;18.28;-17.37;-33.28;247.23;-17.58;7.88;1003.22;56.556;51.89199;0.256755;209.0;NaN;82.83273;1.25;28.0;122.2;9 / 19;157005;2015-03-03 13:59:42:560
-1.2357;2.9047;9.023;-1.2858;2.9819;9.2534;0.0105;-0.0018;-0.001;0.0013;-0.0017;-0.0022;18.45;-17.55;-34.13;244.79;-17.66;7.93;1003.22;55.591;51.89199;0.256755;209.0;NaN;82.83273;1.25;28.0;122.2;9 / 19;157505;2015-03-03 13:59:43:060
-1.219;3.0047;9.223;-1.2808;2.9647;9.2596;-0.0022;0.0074;0.0512;0.0013;0.0026;-0.0022;18.1;-17.9;-32.42;243.17;-17.65;7.9;1003.22;57.379;51.89199;0.256755;209.0;NaN;82.83273;1.25;28.0;122.2;9 / 19;158005;2015-03-03 13:59:43:560
-1.2595;2.9;8.9635;-1.2851;2.9643;9.2592;-0.0093;0.0229;8.0E-4;-9.0E-4;-6.0E-4;-0.0012;18.45;-17.55;-32.42;243.01;-17.59;7.93;1003.23;54.845;51.89199;0.256755;209.0;NaN;82.74706;1.25;28.0;122.2;9 / 19;158505;2015-03-03 13:59:44:060
-1.2666;2.9071;9.0159;-1.2736;2.9725;9.2581;4.0E-4;0.0019;-0.05;0.0013;5.0E-4;-1.0E-4;17.05;-18.25;-32.77;242.0;-17.62;7.85;1003.23;62.331;51.89199;0.256755;209.0;NaN;82.74706;1.25;28.0;122.2;9 / 19;159006;2015-03-03 13:59:44:561
-1.2452;2.9309;9.1801;-1.2843;2.9605;9.2605;-0.0306;-0.017;0.0133;2.0E-4;-6.0E-4;-1.0E-4;18.45;-18.25;-31.74;243.0;-17.57;7.9;1003.23;56.02;51.89199;0.256755;209.0;NaN;82.74706;1.25;28.0;122.2;9 / 19;159505;2015-03-03 13:59:45:060
-1.2714;2.9547;9.1397;-1.2687;2.9681;9.2602;-0.0175;0.0258;5.0E-4;-9.0E-4;-0.0017;-0.0033;19.51;-17.2;-32.42;249.41;-17.58;7.8;1003.21;56.801;51.89199;0.256755;209.0;NaN;82.91739;1.25;28.0;122.2;9 / 19;160005;2015-03-03 13:59:45:560
-1.2833;2.9571;9.154;-1.282;2.9696;9.2579;-0.0414;-0.0079;0.0181;0.0013;0.0015;-0.0012;18.28;-18.07;-32.26;243.17;-17.62;7.83;1003.21;57.52;51.89199;0.256755;209.0;NaN;82.91739;1.25;28.0;122.2;9 / 19;160506;2015-03-03 13:59:46:061
-1.2524;2.9214;9.0587;-1.2826;2.9748;9.2561;0.0071;0.0022;-0.0203;2.0E-4;0.0037;0.001;18.45;-18.25;-32.42;243.17;-17.65;7.92;1003.21;49.187;51.89199;0.256755;209.0;NaN;82.91739;1.25;28.0;122.2;9 / 19;161005;2015-03-03 13:59:46:560
-1.2333;2.9119;9.1778;-1.2797;2.9623;9.2605;-0.0226;-0.005;0.0126;2.0E-4;5.0E-4;0.002;18.63;-18.07;-33.62;246.47;-17.63;7.86;1003.22;54.704;51.89199;0.256755;209.0;NaN;82.83273;1.25;28.0;122.2;9 / 19;161505;2015-03-03 13:59:47:060
-1.2976;2.9714;9.0945;-1.2919;2.9729;9.2554;-0.0173;-0.0032;-0.0253;4.0E-4;-5.0E-4;-0.0012;18.28;-18.42;-32.94;243.84;-17.6;7.93;1003.21;57.155;51.89199;0.256755;209.0;NaN;82.91739;1.25;28.0;122.2;9 / 19;162007;2015-03-03 13:59:47:562
-1.2738;2.9571;9.1801;-1.2856;2.9684;9.2578;0.0208;-0.0081;-0.0457;4.0E-4;0.0027;0.002;18.81;-18.25;-33.11;245.62;-17.62;7.92;1003.2;55.479;51.89199;0.256755;209.0;NaN;83.00306;1.25;28.0;122.2;9 / 19;162505;2015-03-03 13:59:48:060
-1.2643;2.9214;9.1754;-1.2768;2.965;9.2601;0.0176;-0.0127;-0.0099;4.0E-4;0.0016;-2.0E-4;19.16;-18.95;-33.11;242.59;-17.63;7.87;1003.2;56.483;51.89199;0.256755;209.0;NaN;83.00306;1.25;28.0;122.2;9 / 19;163006;2015-03-03 13:59:48:561
-1.2666;2.95;9.0897;-1.28;2.9658;9.2594;0.0077;0.0191;-0.0186;-0.0039;-5.0E-4;9.0E-4;18.63;-18.07;-32.94;245.56;-17.58;7.85;1003.2;53.91;51.89199;0.256755;209.0;NaN;83.00306;1.25;28.0;122.2;9 / 19;163505;2015-03-03 13:59:49:060
-1.2857;2.9285;9.1492;-1.2959;2.9783;9.2532;0.0048;-0.0101;-0.0016;4.0E-4;0.0027;0.003;18.63;-17.72;-32.94;245.75;-17.7;7.98;1003.2;57.649;51.89199;0.256755;209.0;NaN;83.00306;1.25;28.0;122.2;9 / 19;164005;2015-03-03 13:59:49:560
-1.2857;2.9285;9.1587;-1.2914;2.975;9.2549;-0.0043;0.0013;0.0241;4.0E-4;-5.0E-4;-2.0E-4;17.93;-17.02;-34.64;249.27;-17.67;7.93;1003.21;54.992;51.89199;0.256755;209.0;NaN;82.91739;1.25;28.0;122.2;9 / 19;164505;2015-03-03 13:59:50:060
-1.2809;2.8881;9.0135;-1.2917;2.9643;9.2582;-0.0124;-0.0119;-0.0087;0.0025;0.0048;-0.0012;18.28;-16.67;-32.26;246.49;-17.65;7.91;1003.21;59.106;51.89199;0.256755;209.0;NaN;82.91739;1.25;28.0;122.2;9 / 19;165006;2015-03-03 13:59:50:561
-1.25;2.919;9.1873;-1.289;2.9734;9.2557;0.0196;-0.0057;0.0078;-7.0E-4;5.0E-4;-2.0E-4;19.51;-19.65;-32.42;240.77;-17.66;7.96;1003.21;54.174;51.89199;0.256755;209.0;NaN;82.91739;1.25;28.0;122.2;9 / 19;165505;2015-03-03 13:59:51:060
-1.2428;2.919;9.1754;-1.28;2.9682;9.2586;0.007;-0.0108;0.0489;-7.0E-4;-5.0E-4;-2.0E-4;17.58;-17.72;-33.62;244.74;-17.62;7.87;1003.2;53.142;51.89199;0.256755;209.0;NaN;83.00306;1.25;28.0;122.2;9 / 19;166005;2015-03-03 13:59:51:560
-1.2833;2.8881;9.1825;-1.2874;2.9645;9.2588;-0.0081;-0.0115;-0.0045;-0.0017;-0.0027;-0.0012;18.81;-17.55;-33.11;245.6;-17.61;7.9;1003.22;55.297;51.89199;0.256755;209.0;NaN;82.83273;1.25;28.0;122.2;9 / 19;166505;2015-03-03 13:59:52:060
-1.2309;2.9333;9.1254;-1.2869;2.968;9.2577;0.0066;0.0078;-0.0321;0.0015;-0.0016;-0.0012;18.28;-18.77;-32.26;239.9;-17.59;7.91;1003.23;56.505;51.89199;0.256755;209.0;NaN;82.74706;1.25;28.0;122.2;9 / 19;167005;2015-03-03 13:59:52:560
-1.2881;2.9023;9.1421;-1.2898;2.9712;9.2563;0.0223;-0.0392;-0.0192;-7.0E-4;5.0E-4;9.0E-4;19.33;-19.13;-32.94;242.62;-17.67;7.94;1003.21;60.128;51.89199;0.256755;209.0;NaN;82.91739;1.25;28.0;122.2;9 / 19;167505;2015-03-03 13:59:53:060
-1.2881;2.919;9.1659;-1.2841;2.9719;9.2569;0.0074;0.0315;-4.0E-4;0.0015;-5.0E-4;9.0E-4;17.93;-18.42;-32.26;243.04;-17.59;7.91;1003.22;58.002;51.89199;0.256755;209.0;NaN;82.83273;1.25;28.0;122.2;9 / 19;168006;2015-03-03 13:59:53:561
-1.2833;2.9452;9.0802;-1.2953;2.9753;9.2542;-0.0044;-9.0E-4;0.0037;-0.0017;-0.0016;-0.0012;18.1;-17.55;-33.45;243.94;-17.66;7.97;1003.22;53.642;51.89199;0.256755;209.0;NaN;82.83273;1.25;28.0;122.2;9 / 19;168505;2015-03-03 13:59:54:060
-1.2333;2.9547;9.2063;-1.2928;2.9816;9.2525;0.0197;-3.0E-4;-0.0262;4.0E-4;5.0E-4;-0.0012;19.51;-18.6;-33.45;244.28;-17.68;7.98;1003.22;57.563;51.89199;0.256755;209.0;NaN;82.83273;1.25;28.0;122.2;9 / 19;169004;2015-03-03 13:59:54:559
-1.3285;2.9761;9.1206;-1.2851;2.9645;9.2591;-0.0129;-0.0236;0.0285;4.0E-4;-5.0E-4;9.0E-4;19.16;-18.6;-32.08;241.95;-17.67;7.88;1003.24;56.158;51.89199;0.256755;209.0;NaN;82.6624;1.25;28.0;122.2;9 / 19;169506;2015-03-03 13:59:55:061
-1.2071;2.8857;9.0945;-1.2972;2.9682;9.2562;-0.0106;0.0076;0.0244;-7.0E-4;0.0016;-2.0E-4;17.4;-18.25;-33.45;241.85;-17.59;7.94;1003.25;58.954;51.89199;0.256755;209.0;NaN;82.577736;1.25;28.0;122.2;9 / 19;170005;2015-03-03 13:59:55:560
-1.2143;2.9166;9.1278;-1.2792;2.9696;9.2583;0.0077;-0.0039;0.0172;-7.0E-4;5.0E-4;0.002;19.33;-18.07;-33.96;246.46;-17.63;7.89;1003.24;53.757;51.89199;0.256755;209.0;NaN;82.6624;1.25;28.0;122.2;9 / 19;170505;2015-03-03 13:59:56:060
-1.2738;2.8857;9.1706;-1.287;2.973;9.2561;-0.0237;-0.0063;0.0189;4.0E-4;5.0E-4;-2.0E-4;18.81;-17.55;-32.77;245.68;-17.65;7.92;1003.24;53.173;51.89199;0.256755;209.0;NaN;82.6624;1.25;28.0;122.2;9 / 19;171005;2015-03-03 13:59:56:560
-1.2547;2.9785;9.1801;-1.2853;2.9624;9.2597;-0.0096;0.0229;0.0573;-7.0E-4;-5.0E-4;9.0E-4;18.81;-18.95;-32.42;241.73;-17.58;7.92;1003.24;55.978;51.89199;0.256755;209.0;NaN;82.6624;1.25;28.0;122.2;9 / 19;171505;2015-03-03 13:59:57:060
-1.2881;2.9238;9.0635;-1.2926;2.9644;9.2581;0.0058;-0.0154;0.035;-7.0E-4;0.0016;-0.0012;20.21;-17.2;-32.08;249.49;-17.65;7.95;1003.24;60.705;51.89199;0.256755;209.0;NaN;82.6624;1.25;28.0;122.2;9 / 19;172005;2015-03-03 13:59:57:560
-1.2738;2.969;9.1897;-1.2898;2.9722;9.2559;0.0042;0.0214;0.0111;-7.0E-4;-5.0E-4;-0.0023;19.86;-18.95;-32.42;243.44;-17.61;7.95;1003.24;52.286;51.89199;0.256755;209.0;NaN;82.6624;1.25;28.0;122.2;9 / 19;172505;2015-03-03 13:59:58:060
-1.2857;2.9166;9.1468;-1.2894;2.962;9.2593;-0.0156;0.0181;0.0079;4.0E-4;-5.0E-4;-2.0E-4;17.4;-18.25;-33.79;242.77;-17.61;7.89;1003.23;52.16;51.89199;0.256755;209.0;NaN;82.74706;1.25;28.0;122.2;9 / 19;173005;2015-03-03 13:59:58:560
-1.2547;2.938;9.1968;-1.2932;2.9715;9.2557;-0.0049;0.0288;0.0033;0.0015;-5.0E-4;9.0E-4;19.86;-17.9;-33.45;247.03;-17.57;7.98;1003.23;54.091;51.89199;0.256755;209.0;NaN;82.74706;1.25;28.0;122.2;9 / 19;173507;2015-03-03 13:59:59:062
-1.2643;2.9023;9.1659;-1.2896;2.968;9.2573;-0.0107;0.0056;0.025;4.0E-4;5.0E-4;-2.0E-4;19.69;-18.77;-32.94;244.2;-17.63;7.93;1003.25;55.001;51.89199;0.256755;209.0;NaN;82.577736;1.25;28.0;122.2;9 / 19;174005;2015-03-03 13:59:59:560
-1.2762;2.95;9.2063;-1.2945;2.9723;9.2553;0.0034;-0.0072;-0.0204;0.0025;5.0E-4;0.002;19.86;-16.5;-33.11;253.52;-17.63;7.96;1003.25;55.969;51.89199;0.256755;209.0;NaN;82.577736;1.25;28.0;122.2;9 / 19;174504;2015-03-03 14:00:00:059
-1.319;2.95;9.1183;-1.2849;2.9678;9.2581;0.0071;0.0121;-0.0196;0.0015;-5.0E-4;9.0E-4;18.28;-18.07;-32.6;243.85;-17.6;7.91;1003.22;51.462;51.89199;0.256755;209.0;NaN;82.83273;1.25;28.0;122.2;9 / 19;175005;2015-03-03 14:00:00:560
-1.3047;2.9404;9.154;-1.287;2.9763;9.255;-0.0045;-0.0078;-0.0305;4.0E-4;-5.0E-4;-2.0E-4;19.51;-18.6;-32.42;243.58;-17.66;7.92;1003.23;52.976;51.89199;0.256755;209.0;NaN;82.74706;1.25;28.0;122.2;9 / 19;175505;2015-03-03 14:00:01:060
-1.2643;2.9595;9.1778;-1.2811;2.9736;9.2567;0.02;0.0065;-0.0147;4.0E-4;-5.0E-4;-2.0E-4;18.45;-17.2;-31.4;245.64;-17.66;7.93;1003.22;53.638;51.89199;0.256755;209.0;NaN;82.83273;1.25;28.0;122.2;9 / 19;176007;2015-03-03 14:00:01:562
-1.2905;2.9261;9.0635;-1.2879;2.966;9.2582;-0.0038;0.0191;0.0131;-0.0017;-0.0059;9.0E-4;18.63;-18.42;-32.94;245.58;-17.6;7.92;1003.21;54.012;51.89199;0.256755;209.0;NaN;82.91739;1.25;28.0;122.2;9 / 19;176505;2015-03-03 14:00:02:060
-1.3024;2.9452;9.1635;-1.2886;2.9802;9.2536;0.0113;-0.0054;0.0079;-7.0E-4;5.0E-4;9.0E-4;18.28;-18.42;-33.28;244.05;-17.71;7.97;1003.23;53.97;51.89199;0.256755;209.0;NaN;82.74706;1.25;28.0;122.2;9 / 19;177006;2015-03-03 14:00:02:561
-1.2905;2.9571;9.0873;-1.2813;2.9785;9.2551;-0.0233;0.0153;0.0212;4.0E-4;5.0E-4;9.0E-4;18.1;-18.25;-33.45;244.02;-17.66;7.88;1003.23;57.167;51.89199;0.256755;209.0;NaN;82.74706;1.25;28.0;122.2;9 / 19;177506;2015-03-03 14:00:03:061
-1.2643;2.9428;9.1897;-1.2901;2.9692;9.2569;0.0188;0.0011;0.0861;-0.0017;5.0E-4;-2.0E-4;19.16;-17.55;-33.11;245.69;-17.66;7.95;1003.24;59.621;51.89199;0.256755;209.0;NaN;82.6624;1.25;28.0;122.2;9 / 19;178006;2015-03-03 14:00:03:561
-1.2928;2.9738;9.0921;-1.2864;2.9807;9.2537;-0.0215;0.0158;-0.0268;-7.0E-4;0.0016;-2.0E-4;19.69;-18.42;-32.6;247.25;-17.65;7.88;1003.24;49.952;51.89199;0.256755;209.0;NaN;82.6624;1.25;28.0;122.2;9 / 19;178505;2015-03-03 14:00:04:060
-1.2619;2.9619;9.223;-1.291;2.9731;9.2555;-0.0056;-8.0E-4;0.0419;0.0025;0.0027;-2.0E-4;18.45;-18.25;-32.77;243.98;-17.66;7.93;1003.23;66.262;51.89199;0.256755;209.0;NaN;82.74706;1.25;28.0;122.2;9 / 19;179005;2015-03-03 14:00:04:560
-1.2905;2.8928;9.1135;-1.2811;2.9646;9.2596;0.0112;-0.021;0.0106;-7.0E-4;0.0016;-2.0E-4;19.33;-17.37;-32.26;247.99;-17.6;7.88;1003.23;52.993;51.89199;0.256755;209.0;NaN;82.74706;1.25;28.0;122.2;9 / 19;179505;2015-03-03 14:00:05:060
-1.2452;2.9666;9.0873;-1.2926;2.9621;9.2588;-0.01;0.003;-0.0293;4.0E-4;5.0E-4;-0.0012;18.81;-17.55;-33.45;245.49;-17.57;7.93;1003.24;51.975;51.89199;0.256755;209.0;NaN;82.6624;1.25;28.0;122.2;9 / 19;180006;2015-03-03 14:00:05:561
-1.2952;2.9119;9.1325;-1.2819;2.9782;9.2551;0.0125;0.0168;0.0347;0.0015;-5.0E-4;-2.0E-4;20.04;-19.13;-32.26;243.6;-17.67;7.91;1003.26;53.652;51.89199;0.256755;209.0;NaN;82.492065;1.25;28.0;122.2;9 / 19;180508;2015-03-03 14:00:06:063
-1.2666;2.9428;9.1444;-1.283;2.9648;9.2593;6.0E-4;-0.0032;0.0098;-0.0017;-0.0016;9.0E-4;18.98;-18.42;-31.91;244.86;-17.62;7.88;1003.26;55.164;51.89199;0.256755;209.0;NaN;82.492065;1.25;28.0;122.2;9 / 19;181005;2015-03-03 14:00:06:560
-1.2547;2.9119;9.0778;-1.2721;2.9656;9.2605;0.0065;0.0161;0.0059;4.0E-4;5.0E-4;0.002;18.1;-18.6;-32.42;239.97;-17.61;7.86;1003.26;57.713;51.89199;0.256755;209.0;NaN;82.492065;1.25;28.0;122.2;9 / 19;181507;2015-03-03 14:00:07:062
-1.269;2.9404;9.1183;-1.2779;2.9737;9.2571;-0.0265;0.0175;-0.0054;-7.0E-4;-5.0E-4;9.0E-4;17.58;-18.07;-34.3;244.83;-17.65;7.86;1003.27;67.29;51.89199;0.256755;209.0;NaN;82.4074;1.25;28.0;122.2;9 / 19;182005;2015-03-03 14:00:07:560
-1.25;2.9071;9.1801;-1.2787;2.9781;9.2556;0.0037;-0.0069;0.0035;-7.0E-4;-5.0E-4;9.0E-4;17.58;-18.07;-32.6;244.09;-17.7;7.91;1003.27;55.803;51.89199;0.256755;209.0;NaN;82.4074;1.25;28.0;122.2;9 / 19;182505;2015-03-03 14:00:08:060
-1.2214;2.9166;9.1444;-1.2798;2.9621;9.2606;-0.0088;-8.0E-4;-0.0021;-7.0E-4;-5.0E-4;-2.0E-4;18.45;-17.9;-32.77;243.83;-17.58;7.87;1003.26;52.773;51.89199;0.256755;209.0;NaN;82.492065;1.25;28.0;122.2;9 / 19;183005;2015-03-03 14:00:08:560
-1.25;2.9785;9.1325;-1.2858;2.9758;9.2554;0.0038;-0.008;-0.0312;0.0015;-5.0E-4;-0.0012;19.16;-17.55;-32.08;244.89;-17.64;7.91;1003.27;51.83;51.89199;0.256755;209.0;NaN;82.4074;1.25;28.0;122.2;9 / 19;183505;2015-03-03 14:00:09:060
-1.2571;2.869;9.1111;-1.2669;2.9649;9.2615;-0.0108;-0.0211;-0.0433;4.0E-4;0.0016;-0.0012;18.63;-16.67;-32.94;248.89;-17.6;7.79;1003.25;65.676;51.89199;0.256755;209.0;NaN;82.577736;1.25;28.0;122.2;9 / 19;184005;2015-03-03 14:00:09:560
-1.2881;2.9285;9.0778;-1.2632;2.9634;9.2624;0.0076;0.0133;0.0167;0.0025;-5.0E-4;9.0E-4;18.81;-18.25;-34.47;246.41;-17.58;7.8;1003.24;53.038;51.89199;0.256755;209.0;NaN;82.6624;1.25;28.0;122.2;9 / 19;184505;2015-03-03 14:00:10:060
-1.2738;2.9714;8.9826;-1.2654;2.9636;9.2621;-0.0058;0.0077;-0.0737;-7.0E-4;0.0059;9.0E-4;18.81;-18.25;-32.77;245.66;-17.6;7.77;1003.25;56.652;51.89199;0.256755;209.0;NaN;82.577736;1.25;28.0;122.2;9 / 19;185005;2015-03-03 14:00:10:560
-1.2524;2.9333;9.1183;-1.2775;2.9777;9.2559;0.002;0.0042;0.0015;0.0015;-0.0016;-2.0E-4;18.28;-16.67;-33.28;247.39;-17.64;7.85;1003.25;51.904;51.89199;0.256755;209.0;NaN;82.577736;1.25;28.0;122.2;9 / 19;185505;2015-03-03 14:00:11:060
-1.2738;2.9119;9.0611;-1.266;2.9643;9.2618;0.0014;-0.0086;0.0021;-7.0E-4;-0.0016;-2.0E-4;18.98;-17.02;-32.94;248.91;-17.61;7.78;1003.25;54.898;51.89199;0.256755;209.0;NaN;82.577736;1.25;28.0;122.2;9 / 19;186006;2015-03-03 14:00:11:561
-1.2428;2.9476;9.1254;-1.2635;2.9716;9.2598;-0.006;-0.0172;0.0205;0.0015;0.0037;-0.0012;17.93;-18.07;-33.62;244.87;-17.64;7.77;1003.25;48.786;51.89199;0.256755;209.0;NaN;82.577736;1.25;28.0;122.2;9 / 19;186505;2015-03-03 14:00:12:060
-1.2524;2.9404;9.1563;-1.2633;2.9708;9.2601;0.0013;0.0303;-0.0087;-7.0E-4;-0.0016;9.0E-4;19.86;-17.9;-32.42;246.52;-17.63;7.77;1003.25;52.304;51.89199;0.256755;209.0;NaN;82.577736;1.25;28.0;122.2;9 / 19;187005;2015-03-03 14:00:12:560
-1.2881;2.969;9.1992;-1.2665;2.9733;9.2588;-0.0106;-0.0549;0.0015;0.0058;0.0037;-0.0012;17.93;-18.07;-31.23;242.56;-17.68;7.78;1003.25;54.032;51.89199;0.256755;209.0;NaN;82.577736;1.25;28.0;122.2;9 / 19;187505;2015-03-03 14:00:13:060
-1.219;2.9214;9.1849;-1.2833;2.9751;9.2559;0.0061;0.022;0.0025;-0.0017;-5.0E-4;-0.0012;19.16;-18.95;-32.77;242.55;-17.62;7.87;1003.24;51.627;51.89199;0.256755;209.0;NaN;82.6624;1.25;28.0;122.2;9 / 19;188005;2015-03-03 14:00:13:560
-1.319;2.9023;9.0897;-1.2859;2.9756;9.2554;0.0036;-0.0352;-0.0245;-7.0E-4;0.0069;9.0E-4;18.63;-17.72;-32.26;245.02;-17.69;7.89;1003.24;66.327;51.89199;0.256755;209.0;NaN;82.6624;1.25;28.0;122.2;9 / 19;188505;2015-03-03 14:00:14:060
-1.2976;2.9523;9.104;-1.2912;2.9853;9.2516;0.0197;-0.0172;-0.0606;0.01;0.0101;9.0E-4;17.75;-18.25;-32.77;244.0;-17.66;7.9;1003.23;66.825;51.89199;0.256755;209.0;NaN;82.74706;1.25;28.0;122.2;9 / 19;189004;2015-03-03 14:00:14:559
-1.2547;2.9785;9.0635;-1.299;2.9795;9.2523;0.0074;-0.0132;0.0608;0.0015;-0.0016;-0.0012;18.81;-18.6;-32.77;242.61;-17.69;7.99;1003.22;55.036;51.89199;0.256755;209.0;NaN;82.83273;1.25;28.0;122.2;9 / 19;189506;2015-03-03 14:00:15:061
-1.2643;2.9261;9.0254;-1.2733;2.9747;9.2575;-0.0213;0.0114;-0.0064;4.0E-4;5.0E-4;-2.0E-4;18.28;-18.07;-32.6;244.0;-17.63;7.79;1003.21;51.297;51.89199;0.256755;209.0;NaN;82.91739;1.25;28.0;122.2;9 / 19;190005;2015-03-03 14:00:15:560
-1.269;2.9476;9.0992;-1.2595;2.9594;9.2642;-0.0174;0.012;-0.0746;-7.0E-4;-0.0048;-2.0E-4;18.81;-18.6;-33.79;243.32;-17.64;7.91;1003.2;54.412;51.89199;0.256755;209.0;NaN;83.00306;1.25;28.0;122.2;9 / 19;190505;2015-03-03 14:00:16:060
-1.2666;2.9238;9.1968;-1.2694;2.9679;9.2602;-0.016;-0.0038;-0.0676;4.0E-4;0.0037;9.0E-4;18.45;-18.95;-33.11;240.8;-17.6;7.72;1003.2;60.774;51.89199;0.256755;209.0;NaN;83.00306;1.25;28.0;122.2;9 / 19;191005;2015-03-03 14:00:16:560
-1.2524;2.988;9.1587;-1.2694;2.9641;9.2614;-0.0274;0.0247;-0.0559;-7.0E-4;-0.0027;9.0E-4;18.1;-17.9;-33.45;243.82;-17.54;7.78;1003.19;55.628;51.89199;0.256755;209.0;NaN;83.087715;1.25;28.0;122.2;9 / 19;191505;2015-03-03 14:00:17:060
-1.2405;2.9261;9.0802;-1.2715;2.9694;9.2594;-0.0163;-0.0102;-0.0773;0.0079;0.008;-2.0E-4;17.4;-17.55;-32.08;241.19;-17.59;7.77;1003.21;64.272;51.89199;0.256755;209.0;NaN;82.91739;1.25;28.0;122.2;9 / 19;192006;2015-03-03 14:00:17:561
-1.2095;3.0023;9.0302;-1.2785;2.9712;9.2579;0.0265;0.0408;-0.0622;0.0015;-0.0016;-2.0E-4;18.63;-17.37;-32.6;248.74;-17.53;7.78;1003.22;54.853;51.89199;0.256755;209.0;NaN;82.83273;1.25;28.0;122.2;9 / 19;192504;2015-03-03 14:00:18:059
-1.2286;2.95;9.2658;-1.2708;2.9701;9.2593;-5.0E-4;-0.0304;0.0284;4.0E-4;0.0016;0.002;18.81;-18.95;-33.45;242.65;-17.66;7.86;1003.23;50.11;51.89199;0.256755;209.0;NaN;82.74706;1.25;28.0;122.2;9 / 19;193005;2015-03-03 14:00:18:560
-1.2286;2.9404;9.1064;-1.2617;2.9727;9.2597;0.0303;0.0226;0.066;-7.0E-4;-0.0027;9.0E-4;18.28;-18.42;-32.94;244.0;-17.62;7.77;1003.23;56.629;51.89199;0.256755;209.0;NaN;82.74706;1.25;28.0;122.2;9 / 19;193505;2015-03-03 14:00:19:060
-1.2571;2.9333;9.073;-1.2735;2.9751;9.2573;-0.0206;0.0092;-0.0458;-0.0017;-5.0E-4;0.002;18.98;-17.37;-32.26;248.18;-17.68;7.87;1003.23;54.053;51.89199;0.256755;209.0;NaN;82.74706;1.25;28.0;122.2;9 / 19;194005;2015-03-03 14:00:19:560
-1.2524;2.9166;9.0992;-1.275;2.9686;9.2592;0.0076;-0.0021;0.0378;-0.0028;-5.0E-4;-0.0012;18.63;-19.47;-32.26;241.93;-17.64;7.82;1003.23;54.619;51.89199;0.256755;209.0;NaN;82.74706;1.25;28.0;122.2;9 / 19;194505;2015-03-03 14:00:20:060
-1.25;2.9238;9.1373;-1.2761;2.9616;9.2613;0.0391;-0.0072;0.0882;-7.0E-4;-0.0027;0.002;19.16;-17.55;-33.11;245.62;-17.62;7.9;1003.24;59.835;51.89199;0.256755;209.0;NaN;82.6624;1.25;28.0;122.2;9 / 19;195005;2015-03-03 14:00:20:560
-1.1833;2.9833;9.0849;-1.2833;2.9707;9.2573;0.018;0.0113;-0.0387;0.0058;0.0101;0.003;18.45;-17.2;-32.08;246.47;-17.63;7.89;1003.24;60.438;51.89199;0.256755;209.0;NaN;82.6624;1.25;28.0;122.2;9 / 19;195505;2015-03-03 14:00:21:060
-1.2643;2.8952;9.1421;-1.2837;2.9611;9.2604;-0.0299;-0.0089;-0.0418;-0.0028;-0.0041;-2.0E-4;18.45;-18.6;-32.77;240.64;-17.57;7.83;1003.24;66.682;51.89199;0.256755;209.0;NaN;82.6624;1.25;28.0;122.2;9 / 19;196008;2015-03-03 14:00:21:563
-1.2928;2.9761;9.2016;-1.293;2.9377;9.2665;-0.0207;0.0098;0.0433;0.0047;0.0012;-0.0012;17.93;-17.72;-32.26;242.6;-17.38;7.88;1003.24;68.537;51.89199;0.256755;209.0;NaN;82.6624;1.25;28.0;122.2;10 / 19;196505;2015-03-03 14:00:22:060
-1.2785;2.9642;9.1492;-1.2894;2.961;9.2596;-0.0109;0.0266;0.011;0.0015;-9.0E-4;-2.0E-4;18.81;-18.95;-32.42;241.58;-17.49;7.88;1003.24;53.609;51.89199;0.256755;209.0;NaN;82.6624;1.25;28.0;122.2;10 / 19;197005;2015-03-03 14:00:22:560
-1.2976;2.9761;9.1135;-1.3051;2.9672;9.2554;0.0016;-0.0246;0.0096;-0.0017;-0.002;-0.0023;19.69;-17.02;-31.23;248.6;-17.61;7.97;1003.24;65.567;51.89199;0.256755;209.0;NaN;82.6624;1.25;28.0;122.2;0 / 19;197505;2015-03-03 14:00:23:060
-1.269;2.8714;9.0611;-1.2795;2.9652;9.2596;0.0224;-0.0089;2.0E-4;0.0079;0.0119;-0.0023;19.33;-17.72;-33.28;245.6;-17.61;7.93;1003.22;56.803;51.89199;0.256755;209.0;NaN;82.83273;1.25;28.0;122.2;0 / 19;198005;2015-03-03 14:00:23:560
-1.2547;2.9095;9.1825;-1.282;2.9623;9.2602;-0.0113;-0.0184;-0.0246;4.0E-4;-0.002;9.0E-4;19.69;-15.97;-32.26;252.55;-17.58;7.88;1003.22;56.779;51.89199;0.256755;209.0;NaN;82.83273;1.25;28.0;122.2;0 / 19;198505;2015-03-03 14:00:24:060
-1.2262;2.938;9.2278;-1.2724;2.9562;9.2635;-0.0383;0.0432;0.0016;-0.021;-0.0234;-0.0023;19.16;-18.6;-31.06;240.99;-17.51;7.81;1003.23;64.245;51.89199;0.256755;209.0;NaN;82.74706;1.25;28.0;122.2;0 / 19;199005;2015-03-03 14:00:24:560
-1.3;2.8904;9.0564;-1.2674;2.9495;9.2663;0.0102;-0.0477;0.0407;-0.0028;-0.0063;-2.0E-4;17.75;-19.3;-31.4;239.13;-17.5;7.79;1003.22;60.491;51.89199;0.256755;209.0;NaN;82.83273;1.25;28.0;122.2;0 / 19;199505;2015-03-03 14:00:25:060
-1.1976;2.9357;9.073;-1.263;2.9485;9.2672;0.0036;-0.0085;-0.0269;4.0E-4;1.0E-4;-0.0023;18.45;-16.85;-33.79;248.14;-17.56;7.79;1003.22;68.149;51.89199;0.256755;209.0;NaN;82.83273;1.25;28.0;122.2;0 / 19;200005;2015-03-03 14:00:25:560
-1.2952;2.9904;9.1492;-1.2554;2.9527;9.2669;0.0157;0.0138;0.1029;-0.0017;-0.0031;0.002;19.16;-17.2;-33.11;248.75;-17.53;7.75;1003.22;67.988;51.89199;0.256755;209.0;NaN;82.83273;1.25;28.0;122.2;0 / 19;200505;2015-03-03 14:00:26:060
-1.2476;2.8785;9.1706;-1.269;2.9737;9.2584;0.0111;-0.0079;-0.0208;0.0036;0.0108;9.0E-4;18.45;-17.9;-33.79;244.89;-17.65;7.79;1003.21;67.296;51.89199;0.256755;209.0;NaN;82.91739;1.25;28.0;122.2;0 / 19;201005;2015-03-03 14:00:26:560
-1.2619;2.95;9.154;-1.2881;2.9786;9.2542;0.0117;0.0024;0.0409;-0.0017;0.0023;-2.0E-4;18.98;-17.37;-33.96;249.93;-17.69;7.89;1003.21;61.118;51.89199;0.256755;209.0;NaN;82.91739;1.25;28.0;122.2;0 / 19;201505;2015-03-03 14:00:27:060
-1.2309;2.9333;9.1611;-1.2971;2.9686;9.2561;-0.0089;-0.0104;-0.0192;-7.0E-4;-9.0E-4;-2.0E-4;18.28;-19.13;-33.28;240.72;-17.66;7.96;1003.2;63.788;51.89199;0.256755;209.0;NaN;83.00306;1.25;28.0;122.2;0 / 19;202005;2015-03-03 14:00:27:560
-1.2833;2.9166;9.0564;-1.2808;2.9801;9.2547;0.0069;0.0169;0.0064;-0.0028;-9.0E-4;-2.0E-4;18.63;-18.77;-32.6;242.68;-17.68;7.89;1003.2;57.312;51.89199;0.256755;209.0;NaN;83.00306;1.25;28.0;122.2;0 / 19;202505;2015-03-03 14:00:28:060
-1.3071;2.8976;9.1587;-1.2837;2.9693;9.2578;-0.0284;-0.0125;0.0158;4.0E-4;-0.0031;0.002;18.1;-17.55;-32.08;243.22;-17.67;7.89;1003.18;54.329;51.89199;0.256755;209.0;NaN;83.17237;1.25;28.0;122.2;0 / 19;203006;2015-03-03 14:00:28:561
-1.2643;2.9547;9.104;-1.2835;2.9684;9.258;2.0E-4;0.0236;-0.0358;4.0E-4;1.0E-4;9.0E-4;18.81;-17.9;-33.79;246.36;-17.59;7.9;1003.18;53.522;51.89199;0.256755;209.0;NaN;83.17237;1.25;28.0;122.2;0 / 19;203505;2015-03-03 14:00:29:060
-1.3047;2.919;9.192;-1.2824;2.9747;9.2562;-0.006;0.0102;-0.0194;0.0015;1.0E-4;-2.0E-4;17.93;-18.42;-32.94;243.95;-17.63;7.87;1003.18;53.005;51.89199;0.256755;209.0;NaN;83.17237;1.25;28.0;122.2;0 / 19;204006;2015-03-03 14:00:29:561
-1.2976;2.9809;9.1302;-1.2928;2.9757;9.2544;0.0169;-0.0034;0.0353;-7.0E-4;-0.002;-2.0E-4;18.1;-18.25;-31.74;243.2;-17.68;7.96;1003.19;53.358;51.89199;0.256755;209.0;NaN;83.087715;1.25;28.0;122.2;0 / 19;204505;2015-03-03 14:00:30:060
-1.2881;2.9142;9.1135;-1.2837;2.9661;9.2588;-0.0099;-0.0151;0.0201;-7.0E-4;1.0E-4;-2.0E-4;18.1;-18.25;-33.79;244.8;-17.65;7.9;1003.19;56.683;51.89199;0.256755;209.0;NaN;83.087715;1.25;28.0;122.2;0 / 19;205005;2015-03-03 14:00:30:560
-1.2928;2.9333;9.1349;-1.292;2.9672;9.2573;0.0031;0.0214;0.0;-7.0E-4;-9.0E-4;-0.0012;18.45;-16.85;-33.11;247.24;-17.61;7.94;1003.17;58.217;51.89199;0.256755;209.0;NaN;83.25804;1.25;28.0;122.2;0 / 19;205506;2015-03-03 14:00:31:061
-1.2571;2.9428;9.1444;-1.293;2.9672;9.2571;0.0076;-0.014;-5.0E-4;4.0E-4;0.0023;-2.0E-4;19.69;-17.02;-32.94;250.28;-17.63;7.95;1003.19;58.168;51.89199;0.256755;209.0;NaN;83.087715;1.25;28.0;122.2;0 / 19;206005;2015-03-03 14:00:31:560
-1.2595;2.9428;9.1397;-1.2918;2.968;9.257;0.0134;-0.0181;0.0163;-0.0017;-9.0E-4;0.002;19.69;-19.83;-33.96;242.05;-17.64;7.94;1003.19;60.006;51.89199;0.256755;209.0;NaN;83.087715;1.25;28.0;122.2;0 / 19;206506;2015-03-03 14:00:32:061
-1.2643;2.9452;9.173;-1.2883;2.9617;9.2595;0.0095;0.016;-0.0215;-7.0E-4;0.0012;-2.0E-4;18.98;-18.77;-32.6;242.4;-17.57;7.94;1003.18;69.586;51.89199;0.256755;209.0;NaN;83.17237;1.25;28.0;122.2;0 / 19;207005;2015-03-03 14:00:32:560
-1.2643;2.9357;9.0968;-1.2888;2.9763;9.2548;-0.0039;-0.0024;-0.0164;-7.0E-4;1.0E-4;-0.0012;18.1;-16.85;-32.08;246.52;-17.66;7.91;1003.19;49.998;51.89199;0.256755;209.0;NaN;83.087715;1.25;28.0;122.2;0 / 19;207505;2015-03-03 14:00:33:060
-1.2881;2.9428;9.1873;-1.2889;2.9688;9.2572;0.0131;0.0076;0.0176;4.0E-4;-9.0E-4;0.002;18.1;-17.9;-32.42;243.1;-17.63;7.95;1003.19;56.344;51.89199;0.256755;209.0;NaN;83.087715;1.25;28.0;122.2;0 / 19;208004;2015-03-03 14:00:33:559
-1.3;2.938;9.123;-1.2826;2.9754;9.2559;0.0055;5.0E-4;-0.001;4.0E-4;-9.0E-4;-2.0E-4;18.1;-16.85;-31.06;245.69;-17.67;7.92;1003.19;50.47;51.89199;0.256755;209.0;NaN;83.087715;1.25;28.0;122.2;0 / 19;208506;2015-03-03 14:00:34:061
-1.2833;2.95;9.0992;-1.2934;2.9766;9.2541;0.0144;0.0234;0.0098;-7.0E-4;-9.0E-4;-0.0023;19.16;-17.55;-32.77;245.64;-17.65;7.97;1003.21;53.211;51.89199;0.256755;209.0;NaN;82.91739;1.25;28.0;122.2;0 / 19;209005;2015-03-03 14:00:34:560
-1.2666;2.9261;9.1325;-1.2898;2.9749;9.2551;0.0182;-0.0036;0.003;4.0E-4;1.0E-4;9.0E-4;19.33;-18.77;-33.62;243.35;-17.67;7.94;1003.19;53.227;51.89199;0.256755;209.0;NaN;83.087715;1.25;28.0;122.2;0 / 19;209505;2015-03-03 14:00:35:060
-1.2714;2.9357;9.1087;-1.2847;2.9707;9.2571;-0.0027;0.0107;-0.0199;-7.0E-4;0.0012;9.0E-4;18.28;-17.37;-31.91;246.43;-17.62;7.89;1003.2;52.564;51.89199;0.256755;209.0;NaN;83.00306;1.25;28.0;122.2;0 / 19;210005;2015-03-03 14:00:35:560
-1.2857;2.9238;9.0849;-1.2847;2.9704;9.2572;-0.009;0.004;-0.0148;4.0E-4;1.0E-4;-2.0E-4;18.63;-17.72;-32.6;245.67;-17.64;7.92;1003.19;52.72;51.89199;0.256755;209.0;NaN;83.087715;1.25;28.0;122.2;0 / 19;210506;2015-03-03 14:00:36:061
-1.2595;2.9809;9.1206;-1.2838;2.987;9.252;0.0024;0.0212;-0.015;-0.0017;-9.0E-4;9.0E-4;18.98;-17.37;-31.91;248.17;-17.69;7.92;1003.18;50.46;51.89199;0.256755;209.0;NaN;83.17237;1.25;28.0;122.2;0 / 19;211005;2015-03-03 14:00:36:560
-1.25;2.9357;9.1468;-1.2855;2.9805;9.2539;-0.0034;-9.0E-4;0.0136;-0.0017;0.0012;-2.0E-4;17.75;-17.55;-33.45;244.07;-17.69;7.91;1003.17;54.382;51.89199;0.256755;209.0;NaN;83.25804;1.25;28.0;122.2;0 / 19;211505;2015-03-03 14:00:37:060
-1.2809;2.9214;9.1302;-1.2853;2.9724;9.2565;-0.0137;-0.0068;0.0104;4.0E-4;1.0E-4;-2.0E-4;19.16;-17.2;-32.08;248.14;-17.66;7.87;1003.17;52.552;51.89199;0.256755;209.0;NaN;83.25804;1.25;28.0;122.2;0 / 19;212005;2015-03-03 14:00:37:560
-1.2762;2.9857;9.1159;-1.2847;2.9697;9.2575;0.0032;-0.0071;-0.0025;-7.0E-4;1.0E-4;9.0E-4;19.33;-18.07;-33.62;246.46;-17.63;7.91;1003.16;53.397;51.89199;0.256755;209.0;NaN;83.3427;1.25;28.0;122.2;0 / 19;212505;2015-03-03 14:00:38:060
-1.2905;2.9309;9.1206;-1.2876;2.9801;9.2537;-0.0034;-0.0064;-0.0114;0.0015;-0.002;-0.0012;18.1;-19.3;-31.74;240.08;-17.69;7.93;1003.17;54.148;51.89199;0.256755;209.0;NaN;83.25804;1.25;28.0;122.2;0 / 19;213006;2015-03-03 14:00:38:561
-1.2785;2.969;9.1516;-1.29;2.9736;9.2555;-0.0165;0.0068;0.0222;4.0E-4;-9.0E-4;-0.0012;17.58;-18.42;-32.94;243.95;-17.65;7.93;1003.15;53.144;51.89199;0.256755;209.0;NaN;83.427345;1.25;28.0;122.2;0 / 19;213505;2015-03-03 14:00:39:060
-1.3214;2.9476;9.1849;-1.2923;2.9717;9.2558;-0.0216;-0.0093;-0.0307;-7.0E-4;1.0E-4;9.0E-4;17.58;-19.47;-32.26;239.97;-17.64;7.95;1003.18;55.836;51.89199;0.256755;209.0;NaN;83.17237;1.25;28.0;122.2;0 / 19;214010;2015-03-03 14:00:39:565
-1.2595;2.9476;9.1183;-1.2908;2.9822;9.2526;0.008;0.0124;0.0178;-7.0E-4;1.0E-4;-0.0012;18.63;-17.72;-32.94;245.71;-17.68;7.98;1003.18;55.974;51.89199;0.256755;209.0;NaN;83.17237;1.25;28.0;122.2;0 / 19;214507;2015-03-03 14:00:40:062
-1.2809;2.9166;9.1992;-1.2858;2.9698;9.2573;9.0E-4;-0.0208;0.0208;4.0E-4;1.0E-4;9.0E-4;17.75;-18.95;-32.08;240.07;-17.68;7.92;1003.16;52.897;51.89199;0.256755;209.0;NaN;83.3427;1.25;28.0;122.2;0 / 19;215006;2015-03-03 14:00:40:561
-1.3;2.95;9.154;-1.2878;2.9741;9.2556;0.0227;0.0057;-0.0149;-0.0017;1.0E-4;9.0E-4;18.28;-17.02;-32.94;247.29;-17.62;7.93;1003.19;53.762;51.89199;0.256755;209.0;NaN;83.087715;1.25;28.0;122.2;0 / 19;215505;2015-03-03 14:00:41:060
-1.2595;2.9571;9.1421;-1.2887;2.9762;9.2548;0.0022;-0.0145;-0.0035;4.0E-4;1.0E-4;-2.0E-4;19.51;-18.25;-32.77;247.32;-17.69;7.92;1003.2;50.011;51.89199;0.256755;209.0;NaN;83.00306;1.25;28.0;122.2;0 / 19;216005;2015-03-03 14:00:41:560
-1.2476;2.9214;9.1611;-1.2872;2.9732;9.256;0.0054;-0.0084;0.0266;-7.0E-4;1.0E-4;-2.0E-4;17.93;-17.02;-31.57;246.52;-17.66;7.92;1003.18;50.936;51.89199;0.256755;209.0;NaN;83.17237;1.25;28.0;122.2;0 / 19;216505;2015-03-03 14:00:42:060
-1.2571;2.9404;9.1421;-1.2832;2.9693;9.2578;0.0057;0.0097;-0.0269;0.0036;-9.0E-4;-2.0E-4;19.16;-17.55;-32.42;244.87;-17.62;7.88;1003.2;52.248;51.89199;0.256755;209.0;NaN;83.00306;1.25;28.0;122.2;0 / 19;217005;2015-03-03 14:00:42:560
-1.2524;2.9309;9.0373;-1.2823;2.9777;9.2552;0.0157;-0.0169;-0.0243;-7.0E-4;1.0E-4;9.0E-4;17.93;-18.42;-33.28;244.02;-17.67;7.91;1003.19;58.879;51.89199;0.256755;209.0;NaN;83.087715;1.25;28.0;122.2;0 / 19;217508;2015-03-03 14:00:43:063
-1.2881;2.95;9.1325;-1.2891;2.9785;9.254;-0.005;0.0133;-0.0019;-7.0E-4;1.0E-4;-0.0012;18.1;-17.9;-32.77;244.03;-17.69;7.94;1003.19;51.768;51.89199;0.256755;209.0;NaN;83.087715;1.25;28.0;122.2;0 / 19;218005;2015-03-03 14:00:43:560
-1.2785;2.9357;9.123;-1.2851;2.9757;9.2555;-0.0031;9.0E-4;-0.0124;4.0E-4;1.0E-4;-2.0E-4;18.1;-16.5;-31.74;250.05;-17.67;7.9;1003.2;50.759;51.89199;0.256755;209.0;NaN;83.00306;1.25;28.0;122.2;0 / 19;218511;2015-03-03 14:00:44:066
-1.2905;2.9452;9.1325;-1.279;2.9759;9.2563;0.0172;0.002;-0.0244;4.0E-4;1.0E-4;9.0E-4;19.69;-18.07;-33.96;248.07;-17.67;7.88;1003.18;53.64;51.89199;0.256755;209.0;NaN;83.17237;1.25;28.0;122.2;0 / 19;219006;2015-03-03 14:00:44:561
-1.2905;2.9309;9.0968;-1.2903;2.9787;9.2538;0.0037;-0.0119;-0.0083;4.0E-4;0.0012;9.0E-4;18.28;-17.37;-32.26;246.55;-17.68;7.94;1003.18;51.56;51.89199;0.256755;209.0;NaN;83.17237;1.25;28.0;122.2;0 / 19;219505;2015-03-03 14:00:45:060
-1.2071;2.938;9.1373;-1.2765;2.9702;9.2584;0.0126;0.0133;0.0307;0.0015;-9.0E-4;-0.0023;17.93;-18.07;-31.57;243.13;-17.64;7.93;1003.17;48.201;51.89199;0.256755;209.0;NaN;83.25804;1.25;28.0;122.2;0 / 19;220005;2015-03-03 14:00:45:560
-1.3024;2.9428;9.2087;-1.2801;2.9658;9.2593;-0.0276;-0.0068;0.0082;-0.0017;1.0E-4;-2.0E-4;18.98;-17.72;-32.26;244.9;-17.63;7.84;1003.16;51.022;51.89199;0.256755;209.0;NaN;83.3427;1.25;28.0;122.2;0 / 19;220505;2015-03-03 14:00:46:060
-1.2738;2.919;9.1659;-1.2915;2.9737;9.2552;0.0059;-0.0087;-0.0468;4.0E-4;1.0E-4;0.002;19.16;-18.25;-32.77;245.62;-17.63;7.93;1003.16;52.796;51.89199;0.256755;209.0;NaN;83.3427;1.25;28.0;122.2;0 / 19;221005;2015-03-03 14:00:46:560
-1.2881;2.9285;9.173;-1.2847;2.9699;9.2574;-0.0094;-0.0142;-0.0027;4.0E-4;1.0E-4;-2.0E-4;19.51;-18.25;-32.42;246.47;-17.64;7.87;1003.16;57.016;51.89199;0.256755;209.0;NaN;83.3427;1.25;28.0;122.2;0 / 19;221505;2015-03-03 14:00:47:060
-1.2452;2.9476;9.1183;-1.2857;2.9735;9.2561;-0.0094;0.0083;-0.0484;-0.0028;-0.0041;-2.0E-4;18.1;-18.95;-32.08;239.97;-17.64;7.93;1003.15;57.739;51.89199;0.256755;209.0;NaN;83.427345;1.25;28.0;122.2;0 / 19;222007;2015-03-03 14:00:47:562
-1.2571;2.9785;9.1111;-1.2855;2.9751;9.2556;0.0028;-0.014;-0.0332;-0.0017;0.0012;9.0E-4;19.16;-17.9;-33.45;245.73;-17.67;7.91;1003.15;56.091;51.89199;0.256755;209.0;NaN;83.427345;1.25;28.0;122.2;0 / 19;222505;2015-03-03 14:00:48:060
-1.2905;2.9142;9.1302;-1.2856;2.9703;9.2572;-0.0027;-0.0043;0.0276;4.0E-4;-0.002;-2.0E-4;19.33;-19.47;-33.62;243.29;-17.63;7.91;1003.16;52.417;51.89199;0.256755;209.0;NaN;83.3427;1.25;28.0;122.2;0 / 19;223005;2015-03-03 14:00:48:560
-1.2547;2.9738;9.1087;-1.2835;2.9771;9.2553;-0.0055;0.0252;-0.0577;4.0E-4;-0.002;-0.0012;18.98;-18.07;-32.26;244.97;-17.67;7.9;1003.16;57.437;51.89199;0.256755;209.0;NaN;83.3427;1.25;28.0;122.2;0 / 19;223505;2015-03-03 14:00:49:060
-1.3047;2.938;9.1135;-1.2878;2.9838;9.2525;-0.0165;-0.0086;-0.0246;4.0E-4;1.0E-4;9.0E-4;19.16;-18.25;-31.74;245.09;-17.72;7.88;1003.16;56.104;51.89199;0.256755;209.0;NaN;83.3427;1.25;28.0;122.2;0 / 19;224005;2015-03-03 14:00:49:560
-1.2309;2.9142;9.0683;-1.2858;2.9777;9.2547;0.0099;-0.019;-0.0088;4.0E-4;-0.002;-0.0012;19.51;-16.85;-32.77;250.45;-17.71;7.94;1003.18;56.703;51.89199;0.256755;209.0;NaN;83.17237;1.25;28.0;122.2;0 / 19;224504;2015-03-03 14:00:50:059
-1.2286;2.9428;9.1397;-1.285;2.9683;9.2579;-0.031;0.0059;0.0262;-7.0E-4;0.0012;9.0E-4;19.51;-17.55;-33.45;247.17;-17.62;7.9;1003.18;63.452;51.89199;0.256755;209.0;NaN;83.17237;1.25;28.0;122.2;0 / 19;225005;2015-03-03 14:00:50:560
-1.3571;2.9809;9.0802;-1.2831;2.976;9.2557;0.0107;0.0016;-0.0305;4.0E-4;-0.0031;-2.0E-4;20.21;-17.9;-34.13;247.97;-17.63;7.92;1003.17;53.624;51.89199;0.256755;209.0;NaN;83.25804;1.25;28.0;122.2;0 / 19;225505;2015-03-03 14:00:51:060
-1.3;2.9547;9.1111;-1.2824;2.9829;9.2535;-0.0336;6.0E-4;-0.0092;-7.0E-4;-0.002;-2.0E-4;18.81;-17.2;-32.42;248.23;-17.7;7.87;1003.18;54.524;51.89199;0.256755;209.0;NaN;83.17237;1.25;28.0;122.2;0 / 19;226005;2015-03-03 14:00:51:560
-1.2524;2.9166;9.2206;-1.2879;2.9791;9.254;0.0052;-0.0077;0.0359;0.0025;0.0023;9.0E-4;18.98;-18.07;-32.42;248.17;-17.69;7.92;1003.15;55.501;51.89199;0.256755;209.0;NaN;83.427345;1.25;28.0;122.2;0 / 19;226506;2015-03-03 14:00:52:061
-1.2833;2.938;9.0778;-1.2764;2.9756;9.2567;-0.0086;0.0151;0.0213;4.0E-4;0.0012;-2.0E-4;18.45;-18.6;-32.42;240.12;-17.65;7.79;1003.15;50.354;51.89199;0.256755;209.0;NaN;83.427345;1.25;28.0;122.2;0 / 19;227005;2015-03-03 14:00:52:560
-1.219;2.9047;9.0397;-1.2595;2.9614;9.2636;-0.0014;-0.0033;-0.0295;0.0015;0.0012;9.0E-4;20.21;-19.3;-31.4;242.84;-17.58;7.74;1003.15;68.305;51.89199;0.256755;209.0;NaN;83.427345;1.25;28.0;122.2;0 / 19;227505;2015-03-03 14:00:53:060
-1.2119;2.9666;9.1611;-1.2649;2.9687;9.2605;0.0101;0.0137;-0.0094;0.0015;0.0023;0.002;18.1;-18.6;-32.08;240.02;-17.59;7.76;1003.15;53.586;51.89199;0.256755;209.0;NaN;83.427345;1.25;28.0;122.2;0 / 19;228005;2015-03-03 14:00:53:560
-1.2262;2.8976;9.1444;-1.2868;2.9707;9.2569;-0.0128;-0.0154;0.0021;4.0E-4;1.0E-4;-2.0E-4;18.98;-17.37;-32.26;248.11;-17.65;7.9;1003.16;53.524;51.89199;0.256755;209.0;NaN;83.3427;1.25;28.0;122.2;0 / 19;228506;2015-03-03 14:00:54:061
-1.2643;2.9476;9.1135;-1.2885;2.9792;9.2539;0.0186;0.0139;-0.0343;0.0015;-0.002;-0.0012;18.28;-17.37;-33.62;248.26;-17.65;7.94;1003.17;55.225;51.89199;0.256755;209.0;NaN;83.25804;1.25;28.0;122.2;0 / 19;229005;2015-03-03 14:00:54:560
-1.25;2.9571;9.1421;-1.2928;2.9777;9.2538;0.008;-0.006;-0.0085;0.0036;1.0E-4;9.0E-4;18.63;-18.07;-33.96;246.59;-17.7;7.96;1003.17;53.537;51.89199;0.256755;209.0;NaN;83.25804;1.25;28.0;122.2;0 / 19;229505;2015-03-03 14:00:55:060
-1.2619;2.9238;9.0873;-1.2837;2.9711;9.2572;0.0103;-0.0161;-0.0156;0.0015;0.0023;9.0E-4;18.81;-17.55;-32.42;244.88;-17.64;7.91;1003.16;54.498;51.89199;0.256755;209.0;NaN;83.3427;1.25;28.0;122.2;0 / 19;230005;2015-03-03 14:00:55:560
-1.219;2.9095;9.0921;-1.2907;2.9729;9.2556;-0.0141;-0.005;-0.0478;-7.0E-4;1.0E-4;-0.0012;18.1;-18.95;-33.11;240.71;-17.63;7.89;1003.17;52.389;51.89199;0.256755;209.0;NaN;83.25804;1.25;28.0;122.2;0 / 19;230506;2015-03-03 14:00:56:061
-1.269;2.9357;9.0826;-1.2968;2.9747;9.2542;0.0229;-0.0041;-0.01;-7.0E-4;0.0012;-0.0023;18.1;-18.25;-32.42;243.22;-17.69;7.97;1003.17;63.694;51.89199;0.256755;209.0;NaN;83.25804;1.25;28.0;122.2;0 / 19;231005;2015-03-03 14:00:56:560
-1.2238;2.9428;9.1206;-1.2945;2.9763;9.254;0.0176;0.0093;0.0575;4.0E-4;1.0E-4;0.002;18.81;-18.6;-32.42;241.86;-17.66;7.97;1003.18;51.815;51.89199;0.256755;209.0;NaN;83.17237;1.25;28.0;122.2;0 / 19;231505;2015-03-03 14:00:57:060
-1.2785;2.8952;9.1992;-1.3008;2.9695;9.2553;0.0097;-0.0166;0.0553;0.0015;0.0033;-0.0012;20.21;-18.6;-31.06;242.89;-17.67;7.96;1003.18;60.161;51.89199;0.256755;209.0;NaN;83.17237;1.25;28.0;122.2;0 / 19;232005;2015-03-03 14:00:57:560
-1.2619;2.9238;9.1016;-1.2968;2.9796;9.2526;-0.0064;0.0163;-0.0034;0.0025;0.0012;9.0E-4;17.93;-16.32;-32.94;250.87;-17.63;7.97;1003.16;58.55;51.89199;0.256755;209.0;NaN;83.3427;1.25;28.0;122.2;0 / 19;232505;2015-03-03 14:00:58:060
-1.2714;2.9571;9.2087;-1.2953;2.9707;9.2557;-0.0369;-0.0048;0.0397;-0.0017;1.0E-4;-0.0012;17.58;-17.37;-32.6;247.4;-17.67;7.95;1003.16;55.394;51.89199;0.256755;209.0;NaN;83.3427;1.25;28.0;122.2;0 / 19;233006;2015-03-03 14:00:58:561
-1.2881;2.8976;9.1825;-1.2921;2.974;9.2551;-0.0093;0.0212;-0.0167;-7.0E-4;-0.002;-0.0012;18.28;-19.47;-31.91;239.94;-17.63;7.95;1003.17;51.015;51.89199;0.256755;209.0;NaN;83.25804;1.25;28.0;122.2;0 / 19;233505;2015-03-03 14:00:59:060
-1.3;2.95;9.1873;-1.2953;2.9713;9.2555;-0.0049;0.0035;0.0175;-7.0E-4;1.0E-4;-2.0E-4;18.1;-17.55;-32.77;243.92;-17.64;7.95;1003.17;62.463;51.89199;0.256755;209.0;NaN;83.25804;1.25;28.0;122.2;0 / 19;234005;2015-03-03 14:00:59:560
-1.2785;2.95;9.1206;-1.2992;2.9773;9.253;0.0214;0.0011;0.0212;4.0E-4;0.0012;-2.0E-4;18.45;-17.9;-32.77;243.97;-17.68;7.99;1003.17;53.546;51.89199;0.256755;209.0;NaN;83.25804;1.25;28.0;122.2;0 / 19;234504;2015-03-03 14:01:00:059
-1.3119;2.919;9.1659;-1.2876;2.9712;9.2566;-0.0061;0.0053;0.0254;-0.0017;-0.002;-0.0012;17.75;-17.55;-32.08;243.17;-17.66;7.93;1003.19;47.894;51.89199;0.256755;209.0;NaN;83.087715;1.25;28.0;122.2;0 / 19;235006;2015-03-03 14:01:00:561
-1.2785;2.9309;9.1468;-1.2913;2.968;9.2571;-0.0051;-0.0244;-0.0225;4.0E-4;1.0E-4;-0.0012;20.21;-17.55;-33.79;247.93;-17.62;7.94;1003.21;57.876;51.89199;0.256755;209.0;NaN;82.91739;1.25;28.0;122.2;0 / 19;235505;2015-03-03 14:01:01:060
-1.2619;2.9809;9.0992;-1.2962;2.9798;9.2526;0.0065;0.0062;-0.0321;-7.0E-4;0.0012;-2.0E-4;18.98;-17.37;-32.26;248.15;-17.69;7.97;1003.22;54.029;51.89199;0.256755;209.0;NaN;82.83273;1.25;28.0;122.2;0 / 19;236006;2015-03-03 14:01:01:561
-1.2785;2.9333;9.2397;-1.2941;2.978;9.2535;0.0062;-0.0014;0.053;-7.0E-4;-9.0E-4;9.0E-4;17.75;-17.2;-32.08;246.53;-17.68;7.96;1003.22;56.029;51.89199;0.256755;209.0;NaN;82.83273;1.25;28.0;122.2;0 / 19;236505;2015-03-03 14:01:02:060
-1.3095;2.9333;9.1992;-1.2941;2.9732;9.255;-6.0E-4;0.0045;0.0333;4.0E-4;1.0E-4;-2.0E-4;18.98;-18.07;-32.6;245.67;-17.65;7.93;1003.24;65.637;51.89199;0.256755;209.0;NaN;82.6624;1.25;28.0;122.2;0 / 19;237007;2015-03-03 14:01:02:562
-1.2571;2.9595;9.1135;-1.2959;2.9741;9.2545;-0.0119;-0.0093;-0.031;4.0E-4;-0.0031;-2.0E-4;19.33;-16.32;-33.96;253.28;-17.65;7.97;1003.24;61.127;51.89199;0.256755;209.0;NaN;82.6624;1.25;28.0;122.2;0 / 19;237506;2015-03-03 14:01:03:061
-1.2809;2.9238;9.123;-1.2879;2.9757;9.2551;0.0043;-0.0083;-0.0022;-7.0E-4;0.0012;9.0E-4;16.87;-18.77;-32.94;238.73;-17.69;7.95;1003.24;58.882;51.89199;0.256755;209.0;NaN;82.6624;1.25;28.0;122.2;0 / 19;238005;2015-03-03 14:01:03:560
-1.3071;2.9285;9.154;-1.2839;2.9717;9.2569;-0.0169;-0.0131;0.0044;-7.0E-4;-0.0031;0.002;17.58;-17.37;-31.23;245.67;-17.66;7.9;1003.26;54.598;51.89199;0.256755;209.0;NaN;82.492065;1.25;28.0;122.2;0 / 19;238505;2015-03-03 14:01:04:060
-1.3262;2.9714;9.1349;-1.2937;2.9697;9.2562;-0.0121;0.0012;0.004;-0.0017;-9.0E-4;0.002;17.93;-18.07;-32.6;243.89;-17.64;7.97;1003.24;53.339;51.89199;0.256755;209.0;NaN;82.6624;1.25;28.0;122.2;0 / 19;239005;2015-03-03 14:01:04:560
-1.2524;2.9428;9.1349;-1.2862;2.9764;9.2551;-0.0017;0.0109;0.0239;-7.0E-4;0.0012;-2.0E-4;19.86;-17.9;-33.79;248.05;-17.67;7.94;1003.23;62.438;51.89199;0.256755;209.0;NaN;82.74706;1.25;28.0;122.2;0 / 19;239505;2015-03-03 14:01:05:060
-1.2524;2.9833;9.192;-1.2915;2.9659;9.2577;-0.0057;0.0;0.0533;-7.0E-4;-9.0E-4;9.0E-4;18.28;-18.77;-32.26;239.94;-17.62;7.94;1003.22;52.521;51.89199;0.256755;209.0;NaN;82.83273;1.25;28.0;122.2;0 / 19;240005;2015-03-03 14:01:05:560
-1.2643;2.9452;9.123;-1.291;2.9724;9.2557;-0.0135;-1.0E-4;-0.0448;-7.0E-4;1.0E-4;-2.0E-4;20.39;-17.37;-32.94;250.28;-17.62;7.91;1003.23;54.686;51.89199;0.256755;209.0;NaN;82.74706;1.25;28.0;122.2;0 / 19;240507;2015-03-03 14:01:06:062
-1.2524;2.969;9.1992;-1.291;2.9767;9.2543;-0.0175;0.021;-0.0407;-7.0E-4;-0.0031;-0.0012;19.69;-18.42;-32.6;247.27;-17.68;7.95;1003.2;66.914;51.89199;0.256755;209.0;NaN;83.00306;1.25;28.0;122.2;0 / 19;241008;2015-03-03 14:01:06:563
-1.2262;2.9476;9.2301;-1.2615;2.9473;9.2678;0.0411;0.0165;0.1453;4.0E-4;0.0012;9.0E-4;19.33;-18.07;-32.94;245.63;-17.63;7.95;1003.2;56.162;51.89199;0.256755;209.0;NaN;83.00306;1.25;28.0;122.2;0 / 19;241506;2015-03-03 14:01:07:061
-1.3904;2.9952;9.6324;-1.2672;2.9501;9.2662;-0.0185;-0.003;-0.0542;-0.0017;-9.0E-4;0.002;18.81;-18.25;-33.45;245.48;-17.51;7.73;1003.19;67.55;51.89199;0.256755;209.0;NaN;83.087715;1.25;28.0;122.2;0 / 19;242005;2015-03-03 14:01:07:560
-1.2857;2.9428;9.104;-1.301;2.9726;9.2543;-0.0246;0.0197;0.0074;0.0015;1.0E-4;-0.0012;19.16;-17.9;-32.42;244.79;-17.61;7.94;1003.2;64.257;51.89199;0.256755;209.0;NaN;83.00306;1.25;28.0;122.2;0 / 19;242504;2015-03-03 14:01:08:059
-1.2857;2.9761;9.1111;-1.2936;2.9716;9.2556;-1.0E-4;0.0182;0.0149;-7.0E-4;-0.0031;9.0E-4;19.16;-17.9;-32.77;245.71;-17.69;8.01;1003.21;64.268;51.89199;0.256755;209.0;NaN;82.91739;1.25;28.0;122.2;0 / 19;243005;2015-03-03 14:01:08:560
-1.2833;2.9666;9.2135;-1.2899;2.9759;9.2547;0.0061;0.0145;0.0198;-7.0E-4;-9.0E-4;9.0E-4;19.33;-18.77;-32.94;242.6;-17.65;7.91;1003.21;67.687;51.89199;0.256755;209.0;NaN;82.91739;1.25;28.0;122.2;0 / 19;243505;2015-03-03 14:01:09:060
-1.2714;2.9571;9.1492;-1.2912;2.9757;9.2546;-0.004;0.0329;-0.0261;-7.0E-4;-9.0E-4;0.002;18.45;-17.55;-32.77;243.91;-17.64;7.94;1003.19;55.368;51.89199;0.256755;209.0;NaN;83.087715;1.25;28.0;122.2;0 / 19;244005;2015-03-03 14:01:09:560
-1.2357;2.9023;9.0468;-1.2872;2.9779;9.2545;0.0043;0.0012;-0.0569;-7.0E-4;0.0012;9.0E-4;18.81;-18.25;-33.11;245.75;-17.68;7.92;1003.19;57.268;51.89199;0.256755;209.0;NaN;83.087715;1.25;28.0;122.2;0 / 19;244505;2015-03-03 14:01:10:060
-1.2666;2.8904;9.0659;-1.2906;2.9812;9.253;-0.0035;-0.0025;-0.0209;-7.0E-4;0.0012;9.0E-4;18.45;-17.9;-33.11;244.05;-17.7;7.94;1003.19;58.783;51.89199;0.256755;209.0;NaN;83.087715;1.25;28.0;122.2;0 / 19;245005;2015-03-03 14:01:10:560
-1.2714;2.9452;9.1278;-1.2942;2.975;9.2545;-0.001;0.007;0.0356;-0.0017;-9.0E-4;9.0E-4;19.33;-18.07;-32.6;245.67;-17.65;7.96;1003.19;63.563;51.89199;0.256755;209.0;NaN;83.087715;1.25;28.0;122.2;0 / 19;245505;2015-03-03 14:01:11:060
-1.2595;2.969;9.1825;-1.2956;2.9775;9.2534;0.0128;-0.0085;-0.0166;-0.0028;1.0E-4;-0.0012;19.86;-19.3;-33.11;244.31;-17.69;7.98;1003.21;60.584;51.89199;0.256755;209.0;NaN;82.91739;1.25;28.0;122.2;0 / 19;246005;2015-03-03 14:01:11:560
-1.2452;2.9285;9.1421;-1.2945;2.9781;9.2534;0.0331;-0.0022;0.0161;4.0E-4;-9.0E-4;9.0E-4;20.92;-17.55;-33.45;248.61;-17.66;7.98;1003.21;53.371;51.89199;0.256755;209.0;NaN;82.91739;1.25;28.0;122.2;0 / 19;246505;2015-03-03 14:01:12:060
-1.2333;2.9333;9.1183;-1.2911;2.9735;9.2554;0.015;-0.0069;0.0454;4.0E-4;1.0E-4;0.002;18.98;-18.07;-32.94;245.73;-17.67;7.93;1003.2;53.016;51.89199;0.256755;209.0;NaN;83.00306;1.25;28.0;122.2;0 / 19;247005;2015-03-03 14:01:12:560
-1.2976;2.9642;9.123;-1.2941;2.9779;9.2535;-0.0148;0.0253;-0.0044;-7.0E-4;-9.0E-4;9.0E-4;18.1;-18.95;-31.74;239.99;-17.65;7.96;1003.2;59.699;51.89199;0.256755;209.0;NaN;83.00306;1.25;28.0;122.2;0 / 19;247505;2015-03-03 14:01:13:060
-1.2809;2.9261;9.1111;-1.2896;2.9829;9.2525;4.0E-4;0.0031;-0.0343;7.0E-4;2.0E-4;0.0029;17.58;-17.72;-32.26;243.24;-17.7;7.94;1003.21;59.334;51.89199;0.256755;209.0;NaN;82.91739;1.25;28.0;122.2;0 / 19;248004;2015-03-03 14:01:13:559
-1.2952;2.9571;9.1897;-1.2918;2.9836;9.252;-0.0037;0.0143;0.0404;7.0E-4;0.0013;-0.0014;18.81;-18.25;-31.74;245.02;-17.71;7.95;1003.2;73.748;51.89199;0.256755;209.0;NaN;83.00306;1.25;28.0;122.2;0 / 19;248505;2015-03-03 14:01:14:060
-1.2619;2.9285;9.1825;-1.2882;2.9761;9.2549;0.0131;-0.026;-0.0072;-0.0025;-0.0019;-0.0014;17.58;-17.72;-33.62;244.87;-17.69;7.94;1003.19;70.285;51.89199;0.256755;209.0;NaN;83.087715;1.25;28.0;122.2;0 / 19;249005;2015-03-03 14:01:14:560
-1.269;2.8976;9.0706;-1.2928;2.9877;9.2505;-0.0182;4.0E-4;-0.039;0.0017;-9.0E-4;8.0E-4;18.45;-17.9;-33.45;244.06;-17.7;7.93;1003.18;73.123;51.89199;0.256755;209.0;NaN;83.17237;1.25;28.0;122.2;0 / 19;249505;2015-03-03 14:01:15:060
-1.2809;2.9619;8.9612;-1.2922;2.9847;9.2516;-0.0017;-0.0084;-0.0353;-4.0E-4;2.0E-4;8.0E-4;17.93;-18.07;-32.26;243.27;-17.71;7.94;1003.2;73.769;51.89199;0.256755;209.0;NaN;83.00306;1.25;28.0;122.2;0 / 19;250005;2015-03-03 14:01:15:560
-1.3214;2.9142;9.0873;-1.2877;2.9835;9.2526;-0.0141;0.0128;0.0257;-4.0E-4;0.0013;8.0E-4;18.81;-17.55;-34.47;246.67;-17.73;7.94;1003.2;76.397;51.89199;0.256755;209.0;NaN;83.00306;1.25;28.0;122.2;0 / 19;250505;2015-03-03 14:01:16:060
-1.3047;2.9928;9.0778;-1.2917;2.9839;9.2519;-0.0025;0.0198;-0.0694;-0.0015;-0.0073;0.0018;20.56;-17.55;-33.11;248.64;-17.67;7.94;1003.21;75.663;51.89199;0.256755;209.0;NaN;82.91739;1.25;28.0;122.2;0 / 19;251005;2015-03-03 14:01:16:560
-1.3404;2.9142;9.1778;-1.2922;2.9861;9.2512;-0.0141;-0.0254;-0.0483;-0.0025;-0.0073;8.0E-4;18.45;-17.55;-32.42;243.35;-17.74;7.94;1003.21;72.979;51.89199;0.256755;209.0;NaN;82.91739;1.25;28.0;122.2;0 / 19;251506;2015-03-03 14:01:17:061
-1.2928;2.969;9.1754;-1.2913;2.9687;9.2569;0.0088;0.0107;-0.0269;0.0017;0.0023;8.0E-4;19.16;-17.9;-33.79;246.41;-17.6;7.88;1003.2;72.685;51.89199;0.256755;209.0;NaN;83.00306;1.25;28.0;122.2;0 / 19;252004;2015-03-03 14:01:17:559
-1.2524;2.95;9.0945;-1.2858;2.9719;9.2566;0.0031;0.0043;-0.0293;-4.0E-4;-0.0019;-0.0014;19.69;-18.42;-33.96;248.03;-17.65;7.9;1003.2;72.254;51.89199;0.256755;209.0;NaN;83.00306;1.25;28.0;122.2;0 / 19;252505;2015-03-03 14:01:18:060
-1.2357;2.9476;9.1373;-1.2877;2.9816;9.2532;-0.0027;0.0151;-0.0051;-4.0E-4;0.0013;-3.0E-4;19.16;-17.9;-32.77;245.77;-17.68;7.9;1003.21;69.865;51.89199;0.256755;209.0;NaN;82.91739;1.25;28.0;122.2;0 / 19;253005;2015-03-03 14:01:18:560
-1.2333;2.9214;9.2444;-1.2873;2.9799;9.2538;0.0138;0.0039;0.0395;0.0017;0.0045;-0.0014;18.45;-16.5;-32.42;250.08;-17.68;7.93;1003.2;66.453;51.89199;0.256755;209.0;NaN;83.00306;1.25;28.0;122.2;0 / 19;253504;2015-03-03 14:01:19:059
-1.3166;2.9071;9.1278;-1.291;2.9811;9.2529;-0.0169;0.0154;0.0262;-0.0015;2.0E-4;0.0018;19.16;-17.55;-31.4;244.23;-17.7;7.94;1003.2;70.043;51.89199;0.256755;209.0;NaN;83.00306;1.25;28.0;122.2;0 / 19;254005;2015-03-03 14:01:19:560
-1.2643;2.9571;9.1302;-1.306;2.9873;9.2488;0.0092;0.0015;-0.0318;-0.0015;2.0E-4;-3.0E-4;20.21;-18.25;-32.08;246.51;-17.71;8.05;1003.19;69.903;51.89199;0.256755;209.0;NaN;83.087715;1.25;28.0;122.2;0 / 19;254505;2015-03-03 14:01:20:060
-1.2833;2.9285;9.1325;-1.2965;2.9889;9.2496;3.0E-4;0.0215;0.0053;-0.0025;-0.0019;0.0018;19.69;-18.07;-32.94;247.38;-17.74;8.02;1003.19;74.411;51.89199;0.256755;209.0;NaN;83.087715;1.25;28.0;122.2;0 / 19;255005;2015-03-03 14:01:20:560
-1.2809;2.969;9.1421;-1.2937;2.9781;9.2535;-0.0076;-0.0059;0.0223;0.0017;0.0023;0.0018;18.1;-17.2;-31.06;245.68;-17.69;7.97;1003.2;72.236;51.89199;0.256755;209.0;NaN;83.00306;1.25;28.0;122.2;0 / 19;255509;2015-03-03 14:01:21:064
-1.2595;2.9547;9.1349;-1.2953;2.9792;9.253;0.0074;-0.0058;0.0236;7.0E-4;0.0013;0.0018;19.51;-18.95;-34.13;245.01;-17.69;8.0;1003.21;67.03;51.89199;0.256755;209.0;NaN;82.91739;1.25;28.0;122.2;0 / 19;256005;2015-03-03 14:01:21:560
-1.2881;2.9309;9.2063;-1.3039;2.983;9.2505;0.0027;-0.0107;0.0483;-0.0015;2.0E-4;8.0E-4;17.22;-20.18;-32.6;235.6;-17.72;7.99;1003.22;71.56;51.89199;0.256755;209.0;NaN;82.83273;1.25;28.0;122.2;0 / 13;256506;2015-03-03 14:01:22:061
-1.2143;3.0142;9.1064;-1.2962;2.9747;9.2543;0.0226;-0.0227;-0.0103;7.0E-4;-9.0E-4;-0.0035;17.93;-17.37;-31.23;245.66;-17.69;8.01;1003.23;63.191;51.89199;0.256755;209.0;NaN;82.74706;1.25;28.0;122.2;0 / 13;257005;2015-03-03 14:01:22:560
-1.2643;2.9404;9.0873;-1.299;2.9767;9.2532;-0.0168;-0.004;0.034;-0.0015;-0.0019;8.0E-4;18.45;-17.55;-32.77;243.97;-17.67;7.96;1003.24;69.644;51.89199;0.256755;209.0;NaN;82.6624;1.25;28.0;122.2;0 / 13;257505;2015-03-03 14:01:23:060
